time,ax,ay,az,aT
0.003000,0.2584,0.2091,-1.6473,1.680
0.004000,-0.1082,0.1656,-1.1546,1.171
0.011000,-0.4474,0.0012,-0.6049,0.752
0.012000,-0.6079,-0.0751,-0.1058,0.622
0.016000,-0.7999,-0.1292,0.4528,0.928
0.021000,-0.8677,-0.1264,0.9751,1.311
0.027000,-0.8012,-0.1440,1.3272,1.557
0.030000,-0.5516,-0.1343,1.4520,1.559
0.036000,-0.1871,-0.1448,1.3806,1.401
0.042000,0.2177,-0.1148,1.1037,1.131
0.045000,0.5285,-0.0981,0.7050,0.887
0.050000,0.7118,-0.0890,0.3639,0.804
0.055000,0.9277,-0.0796,0.1113,0.938
0.060000,1.0861,-0.0957,-0.0959,1.094
0.068000,1.0591,-0.0981,-0.1215,1.071
0.071000,0.9249,-0.0794,0.0512,0.930
0.075000,0.6847,-0.0569,0.4004,0.795
0.079000,0.4665,-0.0313,0.7827,0.912
0.084000,0.2685,0.0109,1.0786,1.112
0.102000,0.1586,0.0593,1.2907,1.302
0.102000,0.1154,0.0349,1.3451,1.350
0.102000,0.1409,0.0069,1.2801,1.288
0.104000,0.1848,-0.0555,1.1006,1.117
0.109000,0.1796,-0.0993,0.9287,0.951
0.114000,0.1629,-0.1077,0.8454,0.868
0.118000,0.2325,-0.0972,0.7361,0.778
0.124000,0.3212,-0.0871,0.6222,0.706
0.131000,0.4118,-0.0723,0.4869,0.642
0.134000,0.4061,-0.0984,0.3734,0.560
0.139000,0.3111,-0.1194,0.3389,0.475
0.142000,0.2131,-0.0804,0.2064,0.307
0.149000,0.1616,-0.0510,0.0837,0.189
0.153000,0.0798,-0.0358,0.0687,0.111
0.158000,-0.0822,-0.0063,-0.0083,0.083
0.162000,-0.1500,0.0138,-0.1354,0.203
0.167000,-0.2123,0.0150,-0.2145,0.302
0.172000,-0.2714,0.0165,-0.2719,0.385
0.192000,-0.2606,0.0208,-0.3841,0.465
0.193000,-0.2088,0.0564,-0.4268,0.478
0.193000,-0.2256,0.0780,-0.3785,0.447
0.194000,-0.2171,0.0976,-0.3086,0.390
0.201000,-0.2473,0.0934,-0.2578,0.369
0.201000,-0.2633,0.1391,-0.2212,0.371
0.214000,-0.2671,0.1271,-0.2395,0.381
0.215000,-0.2963,0.1578,-0.3078,0.455
0.216000,-0.2981,0.1835,-0.3711,0.510
0.222000,-0.2816,0.2143,-0.4725,0.590
0.228000,-0.2372,0.2047,-0.5092,0.598
0.233000,-0.2104,0.1575,-0.5125,0.576
0.241000,-0.1749,0.1609,-0.4631,0.521
0.241000,-0.1192,0.1695,-0.4759,0.519
0.245000,-0.0364,0.1206,-0.4026,0.422
0.251000,0.0016,0.0450,-0.3914,0.394
0.256000,0.1476,0.0621,-0.3109,0.350
0.260000,0.2177,0.0786,-0.2782,0.362
0.265000,0.2455,0.0705,-0.3579,0.440
0.270000,0.3191,0.0334,-0.4899,0.586
0.276000,0.4285,-0.0065,-0.6767,0.801
0.279000,0.4753,-0.0439,-0.7843,0.918
0.284000,0.5144,-0.1265,-0.7937,0.954
0.290000,0.5148,-0.1610,-0.7815,0.950
0.294000,0.5053,-0.1425,-0.7692,0.931
0.299000,0.4885,-0.1190,-0.7354,0.891
0.316000,0.4336,-0.1073,-0.6992,0.830
0.316000,0.3652,-0.0881,-0.6702,0.768
0.317000,0.3073,-0.0971,-0.6436,0.720
0.319000,0.1668,-0.1200,-0.5693,0.605
0.323000,0.0302,-0.0853,-0.4187,0.428
0.328000,-0.0401,-0.0935,-0.3712,0.385
0.333000,-0.0274,-0.0780,-0.3716,0.381
0.353000,0.0160,-0.1108,-0.4224,0.437
0.354000,0.0807,-0.1390,-0.4828,0.509
0.355000,0.1912,-0.1670,-0.6080,0.659
0.355000,0.3623,-0.1729,-0.7500,0.851
0.372000,0.4958,-0.2117,-0.8301,0.990
0.373000,0.6109,-0.2521,-0.7791,1.022
0.373000,0.6817,-0.3372,-0.6209,0.982
0.381000,0.7631,-0.3577,-0.4155,0.940
0.382000,0.8102,-0.4000,-0.1796,0.921
0.383000,0.8307,-0.4982,-0.0042,0.969
0.387000,0.8587,-0.5068,0.0893,1.001
0.393000,0.9498,-0.4574,0.1057,1.060
0.397000,1.0857,-0.3956,0.0237,1.156
0.402000,1.3243,-0.3142,-0.0898,1.364
0.406000,1.5082,-0.3137,-0.1270,1.546
0.412000,1.7059,-0.3058,-0.1336,1.738
0.416000,1.7082,-0.3883,-0.0879,1.754
0.422000,1.5887,-0.5495,0.0148,1.681
0.426000,1.3968,-0.6750,0.1222,1.556
0.430000,1.3154,-0.6582,0.2155,1.487
0.438000,1.1906,-0.6838,0.5605,1.483
0.441000,1.2246,-0.6763,0.6269,1.533
0.446000,1.2488,-0.7267,0.3706,1.492
0.451000,1.2872,-0.8516,0.2947,1.571
0.456000,1.2190,-1.0316,0.2400,1.615
0.460000,1.3313,-1.1063,0.3537,1.767
0.466000,1.3146,-1.2076,0.5390,1.865
0.480000,1.3368,-1.2616,0.6377,1.946
0.483000,1.4101,-1.3668,0.7398,2.099
0.486000,1.5206,-1.2250,0.7178,2.080
0.506000,1.7248,-1.2019,0.6656,2.205
0.508000,2.1883,-1.3749,0.8895,2.733
0.509000,2.1569,-1.4689,0.9641,2.782
0.510000,2.1768,-1.6638,0.7943,2.853
0.511000,2.4293,-1.6144,0.5117,2.961
0.512000,2.7416,-1.4369,0.0272,3.095
0.514000,3.1753,-1.2450,-0.4161,3.436
0.529000,3.4081,-1.1780,-0.6093,3.657
0.531000,3.4082,-1.3288,-0.5349,3.697
0.532000,3.2246,-1.5033,-0.3569,3.576
0.533000,3.0265,-1.7058,-0.0949,3.475
0.543000,2.8257,-1.8474,0.1370,3.379
0.544000,2.5981,-1.8167,0.2840,3.183
0.548000,2.2242,-1.7678,0.6129,2.907
0.560000,1.5356,-1.8950,1.2215,2.728
0.563000,0.4771,-2.0919,1.7112,2.744
0.563000,-0.3744,-2.0808,1.7671,2.755
0.572000,-0.7448,-1.8498,1.3916,2.432
0.572000,-0.7482,-1.5630,0.9043,1.955
0.577000,-0.5981,-1.3119,0.1347,1.448
0.582000,-0.6460,-1.1507,-0.7483,1.517
0.589000,-0.6959,-1.1003,-1.6212,2.079
0.591000,-0.5518,-0.9188,-2.3372,2.571
0.596000,-0.5146,-0.6533,-2.6318,2.760
0.604000,-0.3423,-0.2982,-2.6592,2.698
0.605000,-0.2061,-0.0513,-2.4349,2.444
0.613000,-0.1361,0.0360,-2.0139,2.019
0.633000,-0.0018,0.1363,-1.4756,1.482
0.634000,0.3291,0.3838,-1.0145,1.134
0.634000,0.7204,0.7690,-0.6828,1.256
0.634000,0.9399,1.0201,-0.4350,1.454
0.636000,1.0571,1.1136,-0.2428,1.555
0.641000,1.0574,1.1246,-0.2072,1.557
0.646000,0.8447,1.0818,-0.4608,1.448
0.650000,0.2464,0.8127,-0.9143,1.248
0.659000,-0.4988,0.4030,-1.4426,1.579
0.659000,-1.2128,0.1120,-2.0761,2.407
0.667000,-1.5513,0.1666,-2.5292,2.972
0.669000,-1.5629,0.5373,-2.7445,3.204
0.675000,-1.4602,0.7473,-3.0922,3.500
0.679000,-1.2695,0.7324,-3.6070,3.893
0.685000,-1.1914,0.7510,-3.8968,4.143
0.690000,-1.2279,0.8293,-3.7577,4.039
0.694000,-1.2153,0.9873,-3.4607,3.798
0.700000,-1.0645,1.5618,-3.1704,3.691
0.705000,-0.6555,2.1991,-2.7909,3.613
0.709000,0.4497,2.5014,-2.5393,3.593
0.713000,1.3818,2.5457,-2.2289,3.655
0.720000,2.1683,2.2672,-2.0444,3.745
0.724000,2.4996,1.8681,-2.0533,3.735
0.728000,2.4247,1.4903,-2.0383,3.501
0.740000,2.2645,1.2812,-1.8077,3.168
0.741000,1.9688,1.1388,-1.3670,2.654
0.751000,1.6712,1.1164,-0.9653,2.230
0.752000,1.4693,1.0544,-0.8664,2.005
0.765000,1.2573,1.0780,-0.7668,1.825
0.766000,1.0327,1.0167,-0.7239,1.620
0.767000,0.9051,1.0250,-0.5039,1.457
0.768000,0.6117,1.0386,-0.3015,1.242
0.777000,0.1790,1.0313,-0.1551,1.058
0.778000,-0.8401,0.9065,0.0546,1.237
0.783000,-2.0085,0.7701,0.2164,2.162
0.798000,-1.7997,0.9880,-0.1286,2.057
0.799000,-0.9709,1.3255,-0.7768,1.817
0.799000,-0.9280,1.1716,-1.1609,1.892
0.801000,-1.1945,0.8728,-1.2820,1.958
0.807000,-1.2134,0.9689,-1.0902,1.897
0.811000,-0.7243,1.4217,-0.9854,1.875
0.816000,-0.0927,1.9678,-0.8358,2.140
0.821000,0.4362,2.4449,-0.9733,2.667
0.826000,0.7754,2.7529,-1.6977,3.326
0.831000,0.9093,2.8765,-2.4657,3.896
0.835000,1.3385,3.0125,-3.4649,4.782
0.840000,1.8297,3.0900,-4.1181,5.464
0.846000,1.9149,2.9806,-3.8703,5.247
0.851000,1.3557,2.4550,-2.7254,3.911
0.856000,0.5647,1.8173,-1.0841,2.190
0.860000,-0.1468,1.2687,0.4192,1.344
0.865000,-0.6037,0.7972,0.8152,1.290
0.871000,-0.6859,0.5489,0.5850,1.055
0.877000,-0.5257,0.5826,0.2020,0.810
0.880000,-0.4032,0.8022,0.0984,0.903
0.885000,-0.2152,1.1391,0.2971,1.197
0.890000,0.0845,1.4250,0.6823,1.582
0.895000,0.3365,1.6161,0.8587,1.861
0.901000,0.7715,1.9389,0.6715,2.192
0.908000,1.1728,2.1483,0.3432,2.471
0.909000,1.1567,2.0230,0.0559,2.331
0.915000,0.7765,1.6139,0.0672,1.792
0.919000,0.2657,1.0938,0.3371,1.175
0.924000,0.1567,0.8856,0.5999,1.081
0.929000,0.2526,0.8928,0.6259,1.119
0.934000,0.3571,0.7687,0.2851,0.894
0.939000,0.3936,0.6140,-0.0611,0.732
0.943000,0.4293,0.5435,-0.1807,0.716
0.948000,0.4619,0.4810,-0.2601,0.716
0.954000,0.5058,0.4669,-0.6815,0.969
0.958000,0.7137,0.5441,-1.2662,1.552
0.964000,0.5960,0.3756,-1.4059,1.573
0.969000,0.4467,0.0736,-1.2904,1.368
0.974000,0.4088,-0.2925,-1.0049,1.124
0.992000,0.2836,-0.6608,-1.1528,1.359
0.995000,0.0766,-1.0190,-1.0400,1.458
0.996000,0.0018,-1.4302,-1.1565,1.839
0.996000,0.1797,-1.7475,-1.8590,2.558
0.998000,0.4271,-1.9393,-2.3226,3.056
1.002000,0.6232,-2.2390,-2.1824,3.188
1.007000,0.8068,-2.2588,-2.8479,3.723
1.013000,1.6707,-2.2699,-1.7071,3.295
1.017000,2.2676,-2.2366,0.2276,3.193
1.021000,3.2457,-1.9624,0.6446,3.847
1.027000,3.8611,-1.7808,0.0828,4.253
1.031000,3.4689,-3.1088,-2.1246,5.120
1.037000,3.4514,-3.2869,-1.0308,4.876
1.041000,3.5644,-3.1992,-1.1441,4.924
1.046000,3.6153,-2.9449,-1.5499,4.914
1.051000,3.3424,-2.6612,-1.3402,4.478
1.056000,3.0505,-2.3873,-1.2024,4.056
1.062000,2.9150,-2.0981,-1.3938,3.853
1.066000,2.9700,-1.7427,-1.3285,3.691
1.070000,3.2234,-1.3131,-1.0995,3.650
1.075000,3.3753,-0.9590,-0.9575,3.637
1.087000,3.3105,-0.6268,-0.9089,3.490
1.088000,3.0812,-0.2967,-0.9776,3.246
1.093000,2.7820,0.0842,-1.2057,3.033
1.101000,2.5595,0.6016,-1.5502,3.052
1.102000,2.4360,1.1694,-1.5785,3.129
1.104000,2.2056,1.6251,-1.6629,3.205
1.112000,1.8592,1.8770,-1.6192,3.099
1.116000,1.3174,1.8943,-1.6305,2.825
1.119000,0.9056,1.9230,-1.4185,2.555
1.125000,0.6244,2.0178,-1.3572,2.511
1.130000,0.4721,2.1569,-0.8883,2.380
1.134000,0.3541,2.1726,-0.2424,2.215
1.138000,0.0057,1.9931,-0.2856,2.013
1.145000,-0.6851,1.7469,-0.2048,1.888
1.149000,-1.4040,1.5793,-0.0340,2.113
1.153000,-2.0115,1.6234,-0.2688,2.599
1.158000,-2.2770,1.8473,-0.4016,2.959
1.164000,-2.2578,2.1647,-0.3862,3.152
1.168000,-2.1580,2.4174,-0.4074,3.266
1.173000,-2.2799,2.4574,-0.3699,3.372
1.194000,-2.4579,2.2656,-0.4894,3.378
1.203000,-2.5009,2.0858,-0.4527,3.288
1.205000,-2.6673,1.8032,-0.6544,3.285
1.205000,-2.7039,1.5395,-0.5091,3.153
1.206000,-2.6228,1.4188,-0.4142,3.011
1.207000,-2.6156,1.4098,-0.4420,3.004
1.221000,-2.7920,1.4906,-0.4204,3.193
1.223000,-3.1643,1.6012,-0.5152,3.584
1.224000,-3.3265,1.8322,-0.5424,3.836
1.224000,-3.3625,2.0711,-0.6338,4.000
1.228000,-3.4577,2.2174,-0.4954,4.137
1.231000,-3.6532,2.2090,-0.6019,4.311
1.237000,-3.6999,2.0939,-0.6425,4.300
1.242000,-3.7845,1.9079,-0.4952,4.267
1.246000,-3.8598,1.7229,-0.3944,4.245
1.250000,-3.7950,1.6391,-0.3904,4.152
1.255000,-3.6569,1.6159,-0.2007,4.003
1.263000,-3.2972,1.6936,-0.0551,3.707
1.265000,-2.8377,1.8722,0.2279,3.407
1.270000,-2.3565,1.9030,0.4432,3.061
1.275000,-2.1257,1.7694,0.1439,2.770
1.280000,-1.9343,1.6985,0.0467,2.575
1.285000,-1.6295,1.7691,0.1091,2.408
1.290000,-1.1937,1.9905,-0.2265,2.332
1.296000,-0.6665,2.3053,-0.1635,2.405
1.299000,-0.2400,2.6869,0.0396,2.698
1.304000,-0.1499,2.8533,0.1557,2.861
1.321000,-0.2311,2.9005,0.0629,2.910
1.323000,-0.5250,2.6805,0.2030,2.739
1.323000,-1.2100,2.1532,0.6256,2.548
1.328000,-2.0336,1.4746,0.6440,2.593
1.329000,-2.6989,0.7855,0.1783,2.817
1.334000,-3.2432,0.2171,0.1064,3.252
1.338000,-3.6513,-0.2553,0.2951,3.672
1.344000,-3.7157,-0.6319,0.2847,3.780
1.349000,-3.7056,-0.8846,0.3404,3.825
1.354000,-3.4994,-1.0160,0.2400,3.652
1.358000,-2.9961,-1.0361,0.2441,3.180
1.363000,-2.3238,-0.9355,0.3980,2.536
1.369000,-1.8298,-0.8887,0.5014,2.095
1.374000,-1.4549,-0.9387,0.4042,1.778
1.381000,-1.0806,-0.8461,0.1956,1.386
1.382000,-0.6094,-0.6015,0.1867,0.876
1.387000,-0.2474,-0.4464,0.3204,0.603
1.399000,0.0352,-0.2993,0.2388,0.385
1.400000,0.2942,-0.2080,0.1858,0.405
1.401000,0.3727,-0.2943,0.4100,0.627
1.416000,0.2423,-0.4863,0.5026,0.740
1.417000,0.1494,-0.6382,0.2821,0.714
1.417000,0.1820,-0.6353,0.1979,0.690
1.422000,0.3071,-0.5711,0.2878,0.709
1.426000,0.4754,-0.3789,0.1410,0.624
1.432000,0.5567,-0.1855,0.0398,0.588
1.437000,0.6714,0.0162,0.1131,0.681
1.441000,0.8082,0.1855,0.0834,0.833
1.447000,0.8627,0.2530,-0.0224,0.899
1.450000,0.8547,0.2575,0.0950,0.898
1.455000,0.7597,0.0772,0.1469,0.778
1.461000,0.6339,-0.0747,0.0830,0.644
1.465000,0.6983,0.4204,-0.0973,0.821
1.470000,2.0223,4.7325,-1.1321,5.270
1.477000,2.7367,6.3599,-2.2646,7.285
1.480000,3.2484,5.7976,-1.1009,6.736
1.485000,3.4963,4.0181,0.0701,5.327
1.492000,3.4732,1.7139,0.1047,3.874
1.495000,3.0673,-0.1239,0.3203,3.086
1.501000,2.9545,-0.5332,0.8158,3.111
1.507000,3.1713,0.3880,0.5995,3.251
1.509000,2.4754,1.1031,-0.0012,2.710
1.515000,1.6812,0.9951,-0.1470,1.959
1.520000,1.0790,0.3679,-0.2849,1.175
1.528000,0.4703,-0.2063,-0.4599,0.689
1.529000,0.0993,-0.3235,-0.3510,0.488
1.535000,0.0069,-0.2710,-0.4061,0.488
1.548000,0.1839,-0.1614,-0.3881,0.459
1.549000,0.4543,-0.1216,-0.2832,0.549
1.551000,0.5505,-0.1442,-0.1534,0.589
1.567000,0.6305,-0.1455,0.0728,0.651
1.567000,0.6935,0.0920,0.3194,0.769
1.568000,0.7136,0.0831,0.2877,0.774
1.569000,0.7124,0.0984,0.3353,0.793
1.574000,0.7209,0.0471,0.3145,0.788
1.578000,0.8684,0.0034,0.3280,0.928
1.583000,1.1358,0.1369,0.2063,1.162
1.589000,1.5078,0.2612,0.2388,1.549
1.592000,1.7107,0.2685,0.2055,1.744
1.598000,1.8271,0.1545,0.2931,1.857
1.603000,2.0199,0.0817,0.3489,2.051
1.607000,2.4351,0.2941,0.2057,2.461
1.611000,2.7173,0.4304,0.5615,2.808
1.617000,2.6730,0.4335,0.6611,2.788
1.622000,2.4825,0.4379,0.6324,2.599
1.627000,2.3979,0.4100,0.5782,2.500
1.631000,2.2946,0.4072,0.6293,2.414
1.651000,2.2799,0.5252,0.6567,2.430
1.653000,2.3040,0.7473,0.6557,2.509
1.654000,2.1372,0.9398,0.6987,2.437
1.656000,1.8027,0.8185,0.6019,2.069
1.658000,1.4488,0.5317,0.7882,1.733
1.661000,1.1042,-0.0902,0.7021,1.312
1.666000,1.1512,-2.7386,4.1121,5.073
1.670000,-0.0165,0.4317,-4.4871,4.508
1.676000,0.4490,4.1086,2.6266,4.897
1.681000,0.2984,4.4100,-0.9087,4.512
1.685000,0.0609,2.7159,-2.7038,3.833
1.690000,-0.6031,0.1491,-0.8079,1.019
1.696000,-0.4317,-1.4954,0.6740,1.696
1.700000,-0.0667,-1.5430,0.5842,1.651
1.706000,-0.3175,-0.8035,-0.0432,0.865
1.709000,-1.0789,-0.3150,-0.0727,1.126
1.715000,-1.5739,-0.1728,-0.3937,1.632
1.719000,-1.8442,-0.3026,-0.4109,1.914
1.725000,-2.0715,-0.6379,-0.2782,2.185
1.730000,-2.3035,-0.9300,-0.4640,2.527
1.734000,-2.5221,-1.1483,-0.5789,2.831
1.741000,-2.6892,-1.2217,-0.6974,3.035
1.746000,-2.5682,-1.2557,-0.7984,2.968
1.750000,-2.4384,-1.5467,-0.9061,3.026
1.755000,-1.8726,-2.0229,-1.3401,3.065
1.759000,-0.6188,-0.6909,-0.4423,1.028
1.764000,-0.2848,0.0772,0.5088,0.588
1.769000,-0.3355,0.0634,-0.0804,0.351
1.774000,-0.5050,-0.3803,-0.5884,0.864
1.778000,-0.4287,-0.3648,-0.3250,0.650
1.783000,-0.5728,-0.7889,0.1693,0.989
1.796000,-0.6560,-1.0214,-0.3334,1.259
1.798000,-0.8378,-1.1293,0.0464,1.407
1.803000,-1.1618,-1.4786,-0.1645,1.888
1.813000,-1.5884,-1.8617,-0.1440,2.451
1.815000,-2.0037,-2.0112,-0.0906,2.840
1.816000,-2.2386,-2.0258,-0.2315,3.028
1.817000,-2.5614,-1.7074,-0.3919,3.103
1.822000,-2.1933,-1.3314,-0.7890,2.684
1.829000,-1.9111,-0.9598,-0.5624,2.211
1.831000,-1.4989,-0.6976,-0.6279,1.769
1.837000,-1.2069,-0.4844,-0.6005,1.432
1.841000,-0.6854,-0.1768,-0.7119,1.004
1.846000,-0.3070,0.2805,-0.4723,0.629
1.851000,-0.2425,0.3402,-0.5990,0.730
1.857000,-0.4577,-0.0089,-0.4776,0.662
1.861000,-0.4795,-0.3316,-0.3734,0.692
1.866000,-0.5948,-0.3290,-0.3652,0.772
1.871000,-0.6912,-0.4342,-0.6632,1.052
1.876000,-0.9057,-0.3989,-0.3354,1.045
1.881000,-0.5935,0.1472,-0.8586,1.054
1.888000,-0.1790,0.9412,-0.8219,1.262
1.891000,0.0549,1.4313,-0.2549,1.455
1.895000,-0.2042,1.5201,-0.3837,1.581
1.905000,-0.5454,1.2485,-0.2113,1.379
1.907000,-1.3883,-0.0795,-0.7258,1.569
1.911000,-1.1209,-0.3698,-0.0271,1.181
1.916000,-1.1548,-0.5222,0.5693,1.389
1.921000,-1.8190,-1.4331,-0.4679,2.363
1.926000,-2.0371,-1.8667,-0.8048,2.878
1.930000,-1.6145,-1.4895,-1.0849,2.450
1.948000,-0.6270,0.0806,0.4841,0.796
1.949000,-0.8287,-0.1964,0.9302,1.261
1.950000,-1.6459,-1.6969,-0.9224,2.538
1.958000,-1.2577,-1.8046,-1.0839,2.452
1.958000,-0.6609,-1.1159,0.5498,1.409
1.959000,-0.5301,-0.8469,0.3913,1.073
1.964000,-0.6255,-0.6482,-0.3003,0.950
1.969000,-0.7508,-0.3095,-0.3684,0.892
1.974000,-0.8151,-0.0891,-0.5380,0.981
1.978000,-0.8474,0.0823,-0.8308,1.190
1.983000,-0.5176,0.6209,-0.9979,1.284
1.992000,-0.5852,0.7544,-0.9369,1.338
1.992000,-0.7824,0.7560,-1.0204,1.492
1.998000,-0.5576,0.5897,-1.0618,1.336
2.002000,0.0269,0.2821,-0.9870,1.027
2.009000,0.3830,0.0271,-0.7867,0.875
2.013000,0.5375,-0.1776,-0.6141,0.835
2.017000,0.6938,-0.0095,-0.4834,0.846
2.022000,0.9525,0.4476,-0.5757,1.200
2.027000,0.7312,0.4551,-0.1928,0.883
2.033000,0.7165,0.2146,-0.0323,0.749
2.037000,0.5863,0.0039,0.2197,0.626
2.043000,0.2276,-0.1531,0.5467,0.612
2.046000,-0.0818,-0.3425,0.7556,0.834
2.052000,-0.4022,-0.3994,0.7679,0.954
2.056000,-0.5383,-0.2932,0.7586,0.975
2.061000,-0.5362,-0.0719,0.9001,1.050
2.068000,-0.3671,0.0756,1.1493,1.209
2.073000,-0.3108,-0.0035,1.4081,1.442
2.078000,-0.4944,-0.1489,1.3494,1.445
2.081000,-0.2564,-0.5330,1.2862,1.416
2.087000,-0.1903,-1.1246,1.5220,1.902
2.090000,0.0455,-0.9698,1.4471,1.743
2.094000,0.2750,-0.5282,1.2859,1.417
2.100000,0.3724,-0.3523,1.3462,1.440
2.106000,0.5739,-0.1286,1.3596,1.481
2.109000,0.7560,-0.0795,1.2973,1.504
2.114000,0.8663,-0.1304,1.2216,1.503
2.120000,0.9262,-0.1332,1.1273,1.465
2.124000,1.0986,-0.0257,0.8476,1.388
2.129000,1.0923,-0.2093,0.5219,1.229
2.134000,0.9314,-0.1554,0.4943,1.066
2.139000,0.6639,0.0113,0.3268,0.740
2.143000,0.3809,-0.1227,-0.0642,0.405
2.149000,0.0647,-0.2016,-0.1011,0.235
2.154000,-0.2303,-0.0248,-0.2722,0.357
2.158000,-1.0155,-0.1353,-0.7930,1.296
2.166000,-1.3840,-1.0136,-1.4960,2.276
2.169000,-1.7420,-1.4670,-1.6393,2.806
2.175000,-1.9492,-1.8452,-1.4895,3.070
2.178000,-1.3174,-0.9678,-0.7006,1.779
2.183000,-1.7419,-1.9139,-0.4533,2.627
2.188000,-2.0044,-2.1483,-0.3049,2.954
2.194000,-2.4805,-2.0426,-0.4064,3.239
2.203000,-2.2301,-0.1009,-0.3684,2.263
2.204000,-2.8962,-0.1030,-1.9922,3.517
2.208000,-3.5252,-0.5434,-2.0543,4.116
2.212000,-3.8468,-2.3588,-1.4645,4.744
2.218000,-3.4123,-2.3405,-1.3211,4.344
2.221000,-3.9311,-2.7031,-1.3608,4.961
2.228000,-4.7743,-4.2905,-1.3671,6.563
2.232000,-4.8749,-3.1149,-1.9657,6.110
2.237000,-5.5058,-3.4570,-0.6776,6.536
2.242000,-7.1514,-2.7568,-4.9236,9.110
2.248000,-5.9894,-1.0838,-1.6151,6.297
2.252000,-5.1605,-1.4434,-2.5272,5.925
2.257000,-4.2047,-2.8387,-0.9739,5.166
2.261000,-3.6774,-4.5627,-0.3880,5.873
2.266000,-3.4818,-5.6488,0.2275,6.640
2.270000,-4.6505,-8.2503,2.2322,9.730
2.275000,-8.4870,-20.0129,6.5831,22.713
2.281000,-9.1156,-24.5313,0.7438,26.181
2.285000,1.0106,1.7276,2.6797,3.345
2.290000,3.4028,10.8379,0.6562,11.378
2.295000,-1.7905,4.2644,-0.4571,4.648
2.300000,16.1620,-3.8872,9.7263,19.259
2.304000,31.8434,-2.0930,16.0389,35.716
2.309000,23.9075,0.8753,4.3227,24.311
2.314000,18.4319,7.8292,2.6588,20.202
2.319000,20.1590,9.9789,5.0570,23.055
2.324000,13.2264,7.3968,4.3838,15.776
2.329000,8.0191,5.9371,1.2348,10.054
2.334000,4.0404,5.0266,0.3516,6.459
2.339000,1.5173,3.8004,-0.6905,4.150
2.357000,0.7841,2.4411,-0.4730,2.607
2.358000,0.6951,1.3962,0.2852,1.586
2.359000,0.4505,0.4907,1.6360,1.766
2.359000,-0.3817,0.1383,1.3722,1.431
2.366000,-0.7847,1.4645,2.5855,3.073
2.372000,-0.3758,2.7152,2.2048,3.518
2.373000,-0.6057,2.7959,-3.3830,4.430
2.380000,-1.0827,2.8122,-3.8621,4.899
2.386000,-0.8864,1.9471,-3.8184,4.377
2.388000,-1.0430,1.0716,-3.9909,4.262
2.393000,-1.4520,-0.1107,-3.5942,3.878
2.398000,-1.3231,-0.7986,-2.2988,2.770
2.404000,-0.2837,-0.4215,-1.4657,1.551
2.407000,0.8019,0.1009,-1.3403,1.565
2.413000,1.3471,0.5292,0.2486,1.469
2.418000,1.4660,0.5550,0.8576,1.787
2.422000,1.2477,0.5635,0.0845,1.372
2.428000,0.9505,0.4759,-0.0501,1.064
2.433000,0.6812,0.5220,0.6131,1.055
2.437000,0.4783,0.4338,0.6772,0.936
2.443000,0.1740,0.1160,0.3527,0.410
2.447000,-0.1917,0.0973,0.3852,0.441
2.451000,-0.3324,0.2459,0.4327,0.598
2.456000,-0.2007,0.1506,0.6455,0.693
2.462000,-0.4161,-0.1882,0.3804,0.594
2.467000,-0.4743,-0.2660,0.3959,0.673
2.471000,-0.4305,-0.2241,0.6442,0.807
2.476000,-0.3324,-0.0697,0.3940,0.520
2.487000,-0.2878,0.1729,0.3149,0.460
2.488000,-0.2438,0.2433,0.4542,0.570
2.491000,-0.2408,0.2085,0.4414,0.544
2.501000,-0.3627,0.0855,0.1834,0.415
2.501000,-0.3083,0.0988,0.1058,0.341
2.507000,-0.0968,0.0119,0.2492,0.268
2.510000,0.0136,-0.1011,0.0279,0.106
2.516000,0.4775,-0.1089,-0.0678,0.494
2.521000,0.9346,-0.1599,0.1507,0.960
2.525000,1.4570,-0.2661,0.2411,1.501
2.530000,2.3253,-0.1361,0.2156,2.339
2.534000,3.2132,0.1983,0.3097,3.234
2.539000,4.1628,0.5885,0.4977,4.234
2.544000,4.8765,1.0366,0.6176,5.024
2.548000,5.3587,1.5995,0.7731,5.646
2.554000,5.8208,1.8731,0.9621,6.190
2.566000,5.6089,1.6834,1.0428,5.948
2.567000,5.6636,1.6690,1.0820,6.003
2.572000,5.3408,1.9617,0.8328,5.750
2.576000,4.7948,1.9279,1.1451,5.293
2.580000,4.0122,1.3225,1.2791,4.414
2.584000,2.7893,0.7441,1.1491,3.107
2.589000,1.7769,0.7262,0.9386,2.137
2.594000,0.6245,0.6735,0.5883,1.091
2.601000,-0.0504,0.9901,0.2726,1.028
2.603000,-0.2760,1.0641,0.1719,1.113
2.633000,-0.7601,0.6018,0.1787,0.986
2.635000,-1.3285,-0.2024,0.1231,1.349
2.636000,-1.8348,-1.0972,-0.0035,2.138
2.636000,-1.9887,-1.2317,-0.2529,2.353
2.637000,-2.0101,-1.2403,-0.0010,2.362
2.637000,-2.2700,-1.3572,-0.0466,2.645
2.638000,-2.7794,-1.6614,-0.0942,3.239
2.653000,-3.6092,-2.9081,0.0720,4.636
2.655000,-3.8646,-3.4403,-0.3621,5.187
2.656000,-3.4624,-2.9486,-0.1908,4.552
2.656000,-2.4922,-2.1345,0.0777,3.282
2.662000,-1.8733,-1.7390,0.3855,2.585
2.667000,-1.3800,-1.4557,0.2910,2.027
2.672000,-0.6276,-0.5843,0.5051,0.995
2.676000,0.3995,0.0832,0.8699,0.961
2.681000,0.6524,0.4162,0.3533,0.851
2.685000,0.3236,-0.0558,0.4348,0.545
2.690000,-0.7368,-0.7370,-0.1745,1.057
2.695000,-1.0824,-0.9082,0.2204,1.430
2.699000,-1.1324,-0.5391,-0.1395,1.262
2.706000,-0.8596,0.4632,-0.5481,1.120
2.710000,-0.5132,0.8147,-0.5224,1.095
2.714000,-0.3892,0.2772,-0.5878,0.758
2.720000,-0.2733,0.2017,-0.5288,0.628
2.730000,0.4224,0.5923,-0.1095,0.736
2.731000,0.8536,0.9828,0.0006,1.302
2.735000,1.5843,1.5413,-0.0804,2.212
2.751000,1.7895,1.1544,0.2081,2.140
2.752000,1.8994,0.4464,0.2754,1.970
2.753000,1.6237,0.0530,0.3582,1.664
2.754000,1.0632,-0.7311,0.4380,1.363
2.759000,0.7117,-0.9973,0.5917,1.361
2.763000,0.2088,-1.1236,0.2874,1.178
2.769000,-0.5785,-1.0740,0.3273,1.263
2.775000,-1.3931,-1.3125,-0.1659,1.921
2.782000,-1.6072,-0.5420,-0.2144,1.710
2.783000,-1.7591,-0.3864,-0.3304,1.831
2.788000,-2.2109,-0.7548,-0.6507,2.425
2.793000,-2.0888,-0.7243,-0.2511,2.225
2.798000,-1.8536,-0.3213,-0.4330,1.930
2.803000,-1.6551,-0.0552,-0.5238,1.737
2.809000,-1.4281,-0.2411,-0.5616,1.553
2.813000,-1.2553,-0.0754,-0.4325,1.330
2.818000,-1.1162,0.2428,-0.3775,1.203
2.825000,-0.7441,0.6832,-0.9249,1.370
2.831000,-0.3806,0.2738,-1.1452,1.237
2.833000,-0.6607,-0.2929,-0.5596,0.914
2.854000,-0.7472,-0.7001,-0.7016,1.241
2.856000,-1.0005,-1.0883,-1.1513,1.874
2.856000,-1.2337,-1.4131,-1.1355,2.193
2.856000,-0.7441,-0.6209,-0.6901,1.190
2.863000,-1.1336,-0.6717,-1.2013,1.783
2.864000,-1.3928,-0.3346,-1.1894,1.862
2.866000,-0.9481,0.0650,-1.3069,1.616
2.872000,-0.4430,0.1793,-1.0049,1.113
2.877000,-0.1611,-0.1036,-0.9363,0.956
2.881000,0.1965,-0.1069,-0.7858,0.817
2.885000,0.6358,0.3966,-0.5738,0.944
2.891000,0.6466,0.3267,-0.7440,1.038
2.895000,0.5599,0.1587,-0.2255,0.624
2.901000,1.1197,1.1262,-0.0747,1.590
2.907000,1.9502,2.9628,-0.3193,3.561
2.910000,1.9648,3.2174,-0.1766,3.774
2.915000,0.5998,0.0691,0.2359,0.648
2.919000,0.0510,-2.1611,1.1417,2.445
2.925000,-1.1083,-4.3541,0.2711,4.501
2.929000,-2.7478,-4.8921,0.0115,5.611
2.934000,-2.7781,-3.2112,-0.1860,4.250
2.940000,-2.3308,-1.9880,-0.3066,3.079
2.944000,-1.2650,-1.1976,-0.8742,1.949
2.949000,-1.4267,-1.1592,0.4414,1.891
2.959000,-2.2337,-0.6740,0.2213,2.344
2.960000,-1.3902,0.8354,-0.0820,1.624
2.968000,-0.7864,1.7770,-0.6732,2.057
2.969000,-0.9561,1.2991,-0.3927,1.660
2.975000,-0.9978,0.1518,-0.7559,1.261
2.979000,-0.7012,-0.3956,-0.7173,1.078
2.983000,-0.4523,-0.6063,-0.2117,0.785
2.992000,-0.6001,-0.6717,-0.3044,0.951
2.999000,-0.3966,-0.3699,0.0861,0.549
3.000000,-0.0693,0.0575,-0.3569,0.368
3.007000,0.1190,0.4095,-0.3067,0.525
3.008000,0.1011,0.4122,-0.1843,0.463
3.013000,0.0808,0.1498,-0.1470,0.225
3.018000,0.4638,0.2821,-0.0322,0.544
3.023000,0.8201,0.3000,0.2231,0.901
3.027000,0.9476,0.2281,0.2247,1.000
3.032000,0.8686,0.4034,0.1113,0.964
3.039000,0.9230,0.5602,0.0421,1.081
3.043000,0.9316,0.5506,0.0675,1.084
3.047000,0.9831,0.5949,0.0136,1.149
3.064000,1.2044,0.6477,0.1867,1.380
3.065000,1.1917,0.4560,0.2832,1.307
3.066000,1.0717,0.1583,0.3411,1.136
3.084000,0.8201,-0.0924,0.3718,0.905
3.085000,0.5679,-0.2294,0.4186,0.742
3.086000,0.2431,-0.3009,0.4552,0.597
3.086000,-0.1545,-0.4861,0.4673,0.692
3.086000,-0.4099,-0.5409,0.5206,0.855
3.092000,-1.0402,0.2919,0.0471,1.081
3.096000,-2.3440,0.0331,-1.4450,2.754
3.101000,-2.5499,-0.9101,-0.8546,2.839
3.106000,-1.7953,-1.9864,-0.7662,2.785
3.110000,-0.9581,-1.4192,-0.0770,1.714
3.115000,-0.7502,-0.1766,-0.4957,0.916
3.121000,-0.6057,0.7892,-0.8658,1.319
3.125000,-0.5884,0.7043,-1.1053,1.437
3.130000,-0.5106,0.1390,-1.0666,1.191
3.136000,0.0417,-0.1694,-0.8157,0.834
3.140000,0.9229,0.6305,-0.3904,1.184
3.145000,1.3485,1.2455,-0.6503,1.947
3.149000,1.2344,1.0640,-0.8312,1.829
3.157000,0.9615,0.8326,-0.8868,1.551
3.160000,1.1602,0.9766,-0.8382,1.733
3.164000,1.5840,1.4913,-0.6500,2.271
3.170000,1.3492,1.4019,-0.8803,2.136
3.175000,0.7476,1.0791,-0.8943,1.588
3.180000,0.1198,0.6773,-1.2230,1.403
3.186000,-0.7451,0.4935,-1.3219,1.596
3.190000,-0.9844,0.5353,-1.2459,1.676
3.194000,-0.9439,-0.0153,-0.9955,1.372
3.199000,-0.9298,-0.6124,-0.8276,1.387
3.205000,-1.0478,-1.1248,-0.4914,1.614
3.207000,-1.2872,-1.6273,-0.5086,2.136
3.212000,-1.4885,-1.6877,-0.4240,2.290
3.230000,-1.6449,-1.5095,-0.5952,2.311
3.232000,-1.7829,-1.4037,-0.6731,2.367
3.232000,-1.8498,-1.3271,-0.7123,2.385
3.233000,-1.9481,-1.3583,-0.8727,2.530
3.239000,-1.9438,-1.2342,-0.9535,2.492
3.242000,-1.7770,-1.0051,-1.0292,2.286
3.247000,-1.5664,-0.7424,-1.0711,2.038
3.252000,-1.3783,-0.4411,-1.1148,1.827
3.257000,-1.0041,-0.1510,-1.1555,1.538
3.262000,-0.6629,0.0208,-0.7535,1.004
3.267000,-0.4451,-0.1093,-0.7908,0.914
3.271000,-0.4887,-0.3186,-0.9012,1.074
3.277000,-0.5141,-0.2820,-0.7096,0.920
3.281000,-0.5208,-0.0711,-0.8587,1.007
3.288000,-0.5566,0.1583,-0.9494,1.112
3.291000,-0.7624,0.1315,-0.9694,1.240
3.296000,-0.8471,0.1140,-0.8400,1.198
3.301000,-0.8419,0.0175,-0.9119,1.241
3.306000,-0.9674,-0.1369,-1.0020,1.399
3.310000,-1.0136,-0.1508,-0.8834,1.353
3.318000,-1.0169,-0.1513,-0.7763,1.288
3.323000,-0.8292,-0.2193,-0.7230,1.122
3.326000,-0.9092,-0.2758,-0.8286,1.261
3.330000,-0.9486,-0.1536,-0.6388,1.154
3.335000,-0.7896,0.0779,-0.7516,1.093
3.341000,-0.3773,0.1965,-0.4619,0.628
3.346000,-0.3081,0.2672,-0.3623,0.545
3.363000,-0.1564,0.0178,-0.2516,0.297
3.364000,-0.0679,-0.2167,0.2747,0.356
3.365000,0.1943,-0.3476,0.3703,0.544
3.384000,0.7715,-0.8526,-2.2711,2.546
3.385000,4.1726,0.4970,0.4548,4.227
3.386000,4.2113,1.0241,3.0873,5.321
3.386000,4.0541,0.8237,1.4573,4.386
3.387000,4.7586,1.4342,2.4617,5.546
3.388000,3.4303,0.6372,3.1467,4.698
3.394000,2.5100,0.0540,2.5831,3.602
3.398000,1.8638,-0.3307,2.6664,3.270
3.403000,1.0392,-1.1338,2.2923,2.760
3.408000,0.7087,-1.0047,1.8996,2.263
3.412000,-0.1124,-1.1137,1.7079,2.042
3.419000,-0.4628,-0.7775,1.3270,1.606
3.423000,-0.6527,-0.0662,1.0523,1.240
3.427000,-0.6750,0.2146,0.4558,0.842
3.433000,-0.8706,0.0360,1.0635,1.375
3.438000,-0.9680,-0.3218,0.5874,1.177
3.442000,-0.8095,-0.5001,0.4702,1.061
3.449000,-0.5673,-0.0977,0.3500,0.674
3.452000,-0.4567,0.3375,0.3677,0.677
3.457000,-0.2409,0.4875,0.2386,0.594
3.461000,-0.0074,0.3936,0.4819,0.622
3.467000,0.2366,0.1255,0.3585,0.447
3.472000,0.3880,-0.1686,0.0813,0.431
3.476000,0.6110,-0.2378,-0.7870,1.024
3.484000,0.6749,0.1660,-3.1510,3.227
3.487000,0.0772,0.3584,-4.3344,4.350
3.494000,-0.9259,-0.0906,-3.4354,3.559
3.502000,-1.1723,-0.1743,-2.9884,3.215
3.503000,-0.4275,0.2284,-5.1870,5.210
3.510000,-0.9030,0.0176,-10.4060,10.445
3.511000,-1.9286,0.1466,-18.4870,18.588
3.517000,-4.5786,-1.3315,-16.5998,17.271
3.521000,-5.1391,-2.8068,-3.9849,7.083
3.525000,-6.6865,-7.6838,8.8793,13.513
3.529000,-3.5840,-7.3829,17.6044,19.423
3.535000,-1.6275,-5.6642,22.1062,22.878
3.540000,-1.2114,-3.2358,9.0197,9.659
3.544000,-0.9538,0.6855,-1.5207,1.922
3.549000,-0.5572,3.1730,-2.0322,3.809
3.554000,0.2532,3.5406,-0.2404,3.558
3.566000,0.5999,2.2622,1.4978,2.779
3.567000,1.5514,1.4433,0.9208,2.310
3.569000,3.1168,0.9707,0.9637,3.404
3.574000,4.5904,1.3607,-0.1097,4.789
3.580000,5.8757,1.6992,0.5220,6.139
3.588000,6.2901,1.8667,1.7222,6.784
3.590000,6.1072,1.4787,0.9283,6.352
3.594000,5.7468,1.3289,-1.0870,5.998
3.601000,5.1193,1.8179,-0.8720,5.502
3.605000,4.3952,1.7713,-0.3102,4.749
3.617000,3.1874,1.3114,0.4551,3.477
3.618000,2.5139,0.8451,0.8463,2.784
3.619000,2.4082,1.3427,2.4327,3.677
3.625000,1.0201,1.5249,5.5464,5.842
3.627000,-1.9034,-0.5532,0.7890,2.133
3.641000,-4.8049,-1.5794,-1.2658,5.214
3.642000,-5.5154,-1.0444,-2.0143,5.964
3.643000,-5.7583,-0.9075,-2.2788,6.259
3.652000,-5.5649,-0.7738,-2.1869,6.029
3.653000,-4.7856,-0.4043,-2.1386,5.257
3.657000,-4.0534,-0.2627,-1.8127,4.448
3.662000,-3.0349,-0.1693,-1.7875,3.526
3.668000,-2.1725,-0.2600,-1.0036,2.407
3.672000,-0.4631,0.0727,-0.7512,0.885
3.677000,0.5171,-0.1084,-0.4762,0.711
3.681000,1.6453,-0.1428,-0.4266,1.706
3.687000,2.6137,-0.5114,-0.2662,2.677
3.691000,2.5431,-1.1205,0.9383,2.933
3.697000,2.6173,-0.9612,0.4745,2.828
3.701000,1.7512,-1.4136,0.6901,2.354
3.705000,1.9313,-1.2461,0.6992,2.402
3.711000,1.9382,-1.5254,0.8514,2.609
3.716000,1.5947,-2.1936,1.5246,3.111
3.720000,1.2881,-2.6167,1.9001,3.481
3.725000,0.9618,-2.9288,1.9568,3.651
3.731000,0.2596,-3.4527,2.1846,4.094
3.735000,-1.5051,-5.7365,3.4073,6.840
3.740000,-4.2840,-9.1511,4.9987,11.273
3.745000,-7.4166,-13.0489,6.6639,16.422
3.751000,-7.5824,-12.4026,2.5598,14.760
3.755000,-2.6015,-4.9928,-6.4469,8.559
3.773000,2.7267,4.2704,-6.6802,8.384
3.775000,3.5698,9.4945,-1.0772,10.200
3.777000,3.6076,10.9095,2.1211,11.685
3.778000,3.2424,8.4774,1.1039,9.143
3.798000,2.3373,4.1104,1.2105,4.881
3.804000,0.9061,0.2821,0.4807,1.064
3.805000,-0.6642,-2.2651,0.3831,2.391
3.805000,-1.2388,-2.5452,0.0034,2.831
3.807000,-1.5568,-2.3578,-0.4951,2.868
3.808000,-1.2034,-1.9853,-0.4770,2.370
3.809000,-0.2248,-0.9284,-1.1280,1.478
3.815000,0.5380,-0.0227,-1.4268,1.525
3.818000,0.6863,-0.0472,-1.1080,1.304
3.823000,1.7529,0.1537,-1.5893,2.371
3.828000,3.9950,0.6505,-1.9384,4.488
3.833000,6.1509,1.3437,-1.4944,6.471
3.837000,6.4386,0.8912,-1.4644,6.663
3.843000,4.9262,0.2404,-1.3781,5.121
3.847000,3.7361,0.9977,-1.3320,4.090
3.852000,3.3216,2.2916,-1.4084,4.274
3.857000,3.5949,3.6171,-2.3085,5.598
3.864000,4.2020,3.9511,-1.8327,6.052
3.867000,4.1172,3.3355,-0.6372,5.337
3.871000,3.5984,2.1255,0.1608,4.182
3.878000,2.2791,0.9722,0.0206,2.478
3.882000,1.3409,0.1823,0.0085,1.353
3.886000,0.3425,0.0544,0.1825,0.392
3.908000,0.0664,-0.0595,0.2830,0.297
3.909000,-0.2032,0.5960,0.1712,0.653
3.909000,-0.2642,1.3726,0.3067,1.431
3.909000,-0.3179,1.9164,1.2035,2.285
3.911000,-0.5862,2.5695,2.9879,3.984
3.916000,-0.3065,2.2896,0.9518,2.498
3.920000,-0.1274,1.9815,0.3227,2.012
3.925000,-0.2501,1.5185,-0.1221,1.544
3.930000,-0.5048,0.5020,0.0138,0.712
3.935000,-1.3199,0.1013,0.3828,1.378
3.940000,-2.0674,0.1535,0.6314,2.167
3.945000,-3.1193,0.4554,0.5817,3.206
3.950000,-3.8182,0.4026,1.1602,4.011
3.957000,-3.0677,-0.0666,2.2255,3.791
3.959000,-2.4404,-0.1825,2.1732,3.273
3.964000,-0.9143,0.0420,1.8642,2.077
3.969000,0.5031,0.4626,1.0649,1.265
3.975000,0.3222,0.2280,0.0452,0.397
3.979000,-0.2153,-0.7541,-1.2608,1.485
3.984000,-0.3212,-1.3617,-1.3611,1.952
3.989000,0.2128,-1.0602,0.3344,1.132
3.994000,1.1055,-0.1187,1.5972,1.946
3.999000,1.5538,0.1874,0.5935,1.674
4.003000,1.5459,-0.0121,-1.0796,1.886
4.009000,1.3879,0.0078,-2.2411,2.636
4.013000,1.0749,-0.0160,-3.0041,3.191
4.018000,0.4396,-0.0237,-3.3057,3.335
4.026000,-0.1537,0.0617,-2.7594,2.764
4.029000,-0.5076,0.0515,-1.6207,1.699
4.033000,-0.5394,0.0631,-0.4356,0.696
4.038000,-0.3591,0.0462,0.4778,0.599
4.046000,-0.0840,0.0916,0.9925,1.000
4.048000,0.0784,0.0509,0.9856,0.990
4.052000,0.0734,-0.0184,0.5341,0.539
4.066000,-0.0438,-0.0614,0.0127,0.077
4.067000,-0.1157,-0.0637,-0.3886,0.410
4.068000,0.2164,0.0297,-0.7398,0.771
4.072000,0.1088,-0.0517,-0.7667,0.776
4.091000,-0.4243,-0.1305,-0.3930,0.593
4.092000,-0.4197,0.0061,-0.0274,0.421
4.092000,-0.0595,0.0208,0.1223,0.138
4.093000,0.2811,0.0546,0.2221,0.362
4.096000,0.3873,0.0787,0.2533,0.469
4.102000,0.2740,0.0524,0.2280,0.360
4.107000,0.0467,-0.0265,0.0406,0.067
4.114000,-0.1229,-0.0217,-0.0579,0.138
4.115000,-0.1157,-0.0121,-0.1111,0.161
4.120000,-0.0489,-0.0383,-0.2122,0.221
4.126000,0.0034,0.0024,-0.1557,0.156
4.131000,0.1177,0.0432,-0.1879,0.226
4.135000,0.0767,-0.0022,-0.1507,0.169
4.141000,0.0645,0.0958,-0.1254,0.170
4.145000,-0.0479,0.0073,-0.1239,0.133
4.150000,-0.0623,-0.0142,-0.1892,0.200
4.154000,-0.0313,0.0432,-0.2403,0.246
4.163000,-0.0244,0.0624,-0.3201,0.327
4.167000,-0.0056,0.0218,-0.3210,0.322
4.172000,0.0227,0.0218,-0.3006,0.302
4.177000,0.0295,0.0362,-0.3115,0.315
4.181000,0.0411,0.0339,-0.3034,0.308
4.184000,-0.0069,0.1008,-0.2643,0.283
4.190000,-0.0813,0.0626,-0.1916,0.217
4.194000,-0.1247,0.0363,-0.1979,0.237
4.199000,-0.0703,0.0317,-0.2807,0.291
4.203000,0.0198,0.0630,-0.2943,0.302
4.209000,0.0859,0.0559,-0.2434,0.264
4.213000,0.0374,0.0274,-0.1712,0.177
4.217000,-0.0277,0.0466,-0.0848,0.101
4.224000,-0.0954,0.0420,0.0856,0.135
4.228000,-0.7009,-0.6962,-0.0787,0.991
4.233000,-1.6038,-1.2251,-3.5341,4.070
4.238000,0.1782,0.4987,-3.8197,3.856
4.243000,0.0104,0.1482,-2.3251,2.330
4.247000,0.2324,-0.2496,-0.0632,0.347
4.252000,0.7580,0.1202,1.0046,1.264
4.257000,0.9879,0.4294,0.9868,1.461
4.263000,0.8127,0.5059,1.0289,1.405
4.267000,0.4291,0.2975,0.9895,1.119
4.272000,0.1015,0.1489,1.0431,1.059
4.277000,-0.1442,0.2919,1.3952,1.433
4.282000,-0.3204,0.3297,1.7830,1.841
4.292000,-0.2722,0.1667,1.5614,1.594
4.293000,-0.3105,0.0781,1.4623,1.497
4.297000,-0.4471,-0.0508,1.0118,1.107
4.302000,-0.4530,-0.1674,0.3554,0.600
4.311000,-0.3928,-0.0614,0.2740,0.483
4.313000,-0.1660,0.0686,0.0877,0.200
4.322000,0.6554,0.1866,-0.7269,0.996
4.324000,0.4702,0.1130,-1.4668,1.544
4.326000,0.6943,-0.1541,-0.9211,1.164
4.331000,0.5897,-0.2134,-0.9186,1.112
4.336000,0.6107,-0.0554,-0.9537,1.134
4.340000,0.4174,0.0590,-0.6053,0.738
4.346000,0.2536,0.0513,-0.2150,0.336
4.352000,-0.0533,-0.0401,-0.2022,0.213
4.356000,-0.1926,-0.0477,-0.3141,0.371
4.361000,-0.3081,-0.0552,-0.3282,0.454
4.366000,-0.2925,-0.0888,-0.5081,0.593
4.371000,-0.1653,-0.0338,-0.5949,0.618
4.374000,-0.0481,0.0284,-0.5151,0.518
4.380000,-0.0960,-0.0122,-0.3242,0.338
4.385000,-0.0653,0.0286,-0.0499,0.087
4.390000,-0.0419,0.0024,0.1714,0.176
4.394000,0.0244,0.0241,0.2811,0.283
4.399000,0.1409,0.0864,0.2314,0.284
4.416000,0.2550,0.0864,0.1752,0.321
4.417000,0.1804,0.0290,0.0575,0.192
4.418000,0.0799,0.0624,-0.0071,0.102
4.429000,0.0584,0.0575,-0.1121,0.139
4.430000,0.1733,0.1004,-0.1404,0.245
4.430000,0.2072,0.0236,-0.2020,0.290
4.433000,0.2316,0.0425,-0.1419,0.275
4.439000,0.2133,0.0684,-0.0509,0.230
4.443000,0.0663,0.0201,-0.2705,0.279
4.447000,-0.1138,0.0268,-0.5306,0.543
4.454000,-0.0957,0.0264,-0.6070,0.615
4.458000,-0.0274,0.0595,-0.6006,0.604
4.463000,0.0336,0.0829,-0.3798,0.390
4.468000,0.0109,0.0872,-0.1619,0.184
4.472000,0.0170,0.0724,0.0153,0.076
4.477000,-0.2110,-0.0141,0.2383,0.319
4.481000,-0.3077,-0.0598,-0.0089,0.314
4.487000,-0.1778,-0.0121,-0.2459,0.304
4.492000,-0.0723,0.0142,-0.4446,0.451
4.497000,-0.0722,-0.0265,-0.4645,0.471
4.504000,-0.0554,0.0190,-0.4228,0.427
4.507000,-0.0221,0.0907,-0.3864,0.398
4.511000,-0.0152,0.0692,-0.2804,0.289
4.516000,-0.0465,-0.0885,-0.0052,0.100
4.529000,-0.0993,-0.0453,-0.0914,0.142
4.530000,0.0198,0.0816,-0.1487,0.171
4.531000,0.0312,0.1413,-0.1933,0.242
4.546000,-0.2609,-0.0618,0.0440,0.272
4.547000,-0.1088,-0.1451,0.0251,0.183
4.548000,0.0383,0.0371,-0.3042,0.309
4.556000,-0.0513,-0.1681,-0.3461,0.388
4.557000,-0.1389,-0.3658,0.1135,0.407
4.567000,0.3231,0.2996,-0.0110,0.441
4.568000,0.3212,0.2997,-0.0108,0.439
4.570000,0.2768,0.0917,0.0903,0.305
4.575000,0.1157,-0.0349,-0.0880,0.149
4.580000,0.0003,0.0298,-0.2757,0.277
4.584000,-0.0458,0.0420,-0.3203,0.326
4.589000,-0.0393,0.0827,-0.6455,0.652
4.594000,-0.0232,0.0996,-0.4087,0.421
4.600000,-0.0379,0.0135,-0.3347,0.337
4.604000,0.0329,0.0616,-0.3574,0.364
4.608000,0.0460,0.0833,-0.3065,0.321
4.613000,-0.0051,0.1121,-0.2654,0.288
4.619000,-0.0132,0.0453,-0.2190,0.224
4.624000,0.0436,0.0550,-0.4166,0.422
4.628000,0.2527,0.0839,-0.4565,0.529
4.634000,0.3953,-0.0236,-0.2559,0.471
4.639000,0.6314,0.0672,-0.3690,0.734
4.644000,0.5981,0.0692,0.3353,0.689
4.648000,0.1000,0.1163,0.8049,0.819
4.653000,-0.4981,0.0630,1.2996,1.393
4.658000,-0.8522,-0.1717,1.8527,2.047
4.662000,-1.0138,-0.2407,1.6807,1.977
4.670000,-0.5097,-0.0129,0.0731,0.515
4.679000,0.2365,0.0906,-0.7307,0.773
4.679000,0.3395,-0.1575,-1.4415,1.489
4.689000,0.3166,0.0032,-2.2253,2.248
4.690000,0.3151,0.1588,-1.5429,1.583
4.692000,-0.1255,-0.0061,-1.0606,1.068
4.697000,-0.0592,0.1088,-0.5225,0.537
4.701000,-0.1126,0.0109,0.4712,0.485
4.706000,0.7495,0.3242,-0.6895,1.069
4.711000,6.1826,2.0630,-10.8636,12.669
4.716000,2.7680,-0.3016,-1.2445,3.050
4.722000,-0.0555,0.4282,1.5464,1.606
4.727000,-0.5557,0.4086,1.5847,1.728
4.731000,0.0406,0.4061,3.3661,3.391
4.736000,-0.6301,-0.3206,3.5268,3.597
4.741000,-1.6292,-1.1271,2.3623,3.083
4.745000,-4.2235,-4.7248,0.5297,6.359
4.752000,0.5987,-0.5753,-0.0676,0.833
4.759000,2.5465,1.9840,0.3282,3.245
4.760000,2.0462,0.3018,-0.6939,2.182
4.765000,1.4988,-0.6979,-0.5557,1.744
4.770000,1.0719,0.0690,0.3777,1.139
4.774000,0.0266,0.0982,1.2692,1.273
4.779000,-0.5305,-0.4197,1.2630,1.433
4.784000,-0.3692,-0.0522,0.4548,0.588
4.789000,-0.4479,0.0163,0.2089,0.494
4.795000,-0.6998,0.0708,-0.2209,0.737
4.799000,-0.9841,-0.0919,-0.3142,1.037
4.804000,-0.9808,-0.1534,-0.3685,1.059
4.808000,-0.8788,-0.3386,-0.2740,0.981
4.814000,-0.4894,-0.1097,0.2342,0.554
4.819000,-0.1869,0.1094,0.6933,0.726
4.823000,-0.0448,0.0152,1.0902,1.091
4.828000,0.2406,0.1649,1.0786,1.117
4.834000,0.3135,0.6249,0.7618,1.034
4.839000,0.2318,1.1295,0.1797,1.167
4.843000,0.0076,0.8708,-0.3057,0.923
4.849000,-0.1708,0.5790,-1.1871,1.332
4.853000,-0.3176,0.4381,-2.0844,2.153
4.858000,-0.3831,0.2472,-2.2286,2.275
4.863000,-0.4659,0.0686,-1.9823,2.037
4.867000,-0.8531,-0.0712,-1.7718,1.968
4.873000,-0.9305,-0.0455,-1.1310,1.465
4.880000,-0.7777,-0.0840,-0.4040,0.880
4.884000,-0.6382,-0.2798,0.1432,0.711
4.889000,-0.0505,-0.0976,0.5705,0.581
4.892000,0.3571,0.0152,0.5966,0.695
4.905000,0.4612,-0.1042,0.5807,0.749
4.906000,0.4224,-0.1327,0.6949,0.824
4.922000,0.1308,-0.1112,0.6068,0.631
4.922000,-0.0814,0.0035,0.3906,0.399
4.922000,-0.1310,0.0033,-0.0662,0.147
4.923000,-0.0875,-0.0398,-0.5725,0.581
4.928000,0.0224,-0.0158,-0.7208,0.721
4.931000,0.1254,0.0080,-0.7357,0.746
4.935000,0.1949,-0.1641,-0.8494,0.887
4.941000,0.3265,-0.1091,-0.7896,0.861
4.946000,0.3104,0.2636,-0.8599,0.951
4.950000,-0.1117,0.1219,-0.6919,0.711
4.955000,-0.3279,-0.0840,-0.2356,0.412
4.959000,-0.1213,0.0999,0.3991,0.429
4.965000,0.1018,0.2120,0.7157,0.753
4.969000,0.3129,0.1541,0.7947,0.868
4.976000,0.5362,0.0890,0.6937,0.881
4.983000,0.6311,0.0859,0.7758,1.004
4.984000,0.5049,0.0848,0.8900,1.027
4.991000,0.2555,0.0500,0.7666,0.810
4.994000,0.0569,0.0678,0.4912,0.499
4.999000,-0.0579,-0.0651,0.0903,0.125
5.004000,0.0358,-0.1070,-0.2021,0.231
5.009000,0.3466,0.0926,-0.3413,0.495
5.014000,0.4400,-0.3104,-0.4740,0.717
5.019000,0.5913,-0.1348,-0.5447,0.815
5.025000,0.9039,0.0403,-0.5514,1.060
5.028000,0.8237,-0.1151,-0.6163,1.035
5.033000,0.7164,-0.1250,-0.4810,0.872
5.038000,0.5821,0.0417,-0.3917,0.703
5.043000,0.2387,0.0430,-0.3005,0.386
5.049000,-0.1949,0.0466,-0.4702,0.511
5.053000,-0.4924,0.0051,-0.6042,0.779
5.057000,-0.7928,-0.1461,-0.7940,1.132
5.065000,-1.2642,-0.1390,-1.1237,1.697
5.067000,-1.4462,-0.0236,-1.1177,1.828
5.072000,-1.3607,0.0397,-0.7380,1.548
5.080000,-1.1944,0.0965,-0.3980,1.263
5.082000,-0.7986,0.0127,-0.0732,0.802
5.087000,-0.5218,-0.0132,0.1869,0.554
5.092000,-0.3849,-0.0031,0.4091,0.562
5.099000,-0.1868,-0.0119,0.5314,0.563
5.102000,0.0850,-0.0134,0.4420,0.450
5.107000,0.2489,0.0376,0.2104,0.328
5.116000,0.2098,0.0096,0.1589,0.263
5.124000,0.1494,-0.0734,0.0886,0.189
5.125000,0.0751,-0.0177,0.0592,0.097
5.131000,0.1587,0.0307,-0.0321,0.165
5.133000,0.2137,0.0671,-0.1209,0.254
5.136000,0.2332,0.1391,-0.0400,0.274
5.142000,0.1694,0.0485,-0.0093,0.176
5.147000,0.1680,0.0392,-0.0288,0.175
5.150000,0.1764,0.0776,-0.0885,0.212
5.156000,0.1779,0.0513,-0.1026,0.212
5.162000,0.0099,0.0323,-0.1715,0.175
5.165000,0.0620,0.0276,-0.2667,0.275
5.170000,0.1094,0.0515,-0.2902,0.314
5.175000,0.1951,0.0802,-0.2851,0.355
5.180000,0.1231,0.0586,-0.1509,0.203
5.185000,0.0872,0.0203,-0.1052,0.138
5.189000,0.1831,0.0488,-0.1239,0.226
5.195000,0.1618,0.0343,-0.0756,0.182
5.201000,0.0690,-0.0113,-0.0774,0.104
5.204000,-0.0260,-0.0330,-0.1677,0.173
5.215000,-0.0134,-0.0426,-0.2867,0.290
5.216000,-0.0701,-0.0332,-0.3581,0.366
5.220000,-0.0194,-0.0428,-0.3344,0.338
5.225000,0.0718,0.0026,-0.3134,0.322
5.237000,0.0508,0.0359,-0.2139,0.223
5.238000,-0.0754,0.0309,-0.0930,0.124
5.238000,-0.1036,-0.0266,-0.0128,0.108
5.248000,-0.0124,-0.0147,0.0196,0.027
5.264000,0.0715,0.0044,-0.0078,0.072
5.264000,0.1219,0.0187,-0.0516,0.134
5.265000,0.1125,0.0234,-0.1381,0.180
5.265000,-0.0066,-0.0126,-0.2389,0.239
5.271000,-0.0683,-0.0056,-0.3542,0.361
5.272000,0.0157,0.0111,-0.3906,0.391
5.278000,0.1499,0.0612,-0.2410,0.290
5.283000,0.1956,0.0729,-0.1920,0.284
5.288000,0.1818,-0.0182,-0.2435,0.304
5.293000,-0.0111,-0.0781,-0.2950,0.305
5.297000,-0.2064,-0.0615,-0.3564,0.416
5.302000,-0.1724,-0.0423,-0.3010,0.349
5.307000,-0.0646,-0.0399,-0.2724,0.283
5.312000,-0.0335,0.0223,-0.1557,0.161
5.317000,-0.0813,0.0056,-0.0225,0.085
5.321000,-0.1843,-0.0541,0.0293,0.194
5.327000,-0.2445,-0.0825,0.1122,0.281
5.332000,-0.3098,-0.0558,0.1737,0.360
5.336000,-0.3446,-0.0577,0.1468,0.379
5.348000,-0.3010,-0.0810,0.0630,0.318
5.349000,-0.1921,-0.0820,-0.0681,0.220
5.351000,-0.1366,-0.0520,-0.1460,0.207
5.366000,-0.2030,-0.0294,-0.2118,0.295
5.369000,-0.2099,-0.0613,-0.2938,0.366
5.370000,-0.1722,-0.0929,-0.3873,0.434
5.370000,-0.2064,-0.1407,-0.4284,0.496
5.378000,-0.2694,-0.2521,-0.4293,0.566
5.380000,-0.1522,-0.1084,-0.4544,0.491
5.386000,-0.0055,-0.0703,-0.3943,0.401
5.390000,-0.0428,-0.1439,-0.3681,0.398
5.395000,-0.0304,-0.3806,-0.3874,0.544
5.400000,-0.4131,-0.9828,-0.5552,1.202
5.404000,-0.3639,-0.5156,-0.3933,0.744
5.411000,-0.1366,0.0683,-0.1652,0.225
5.414000,0.1738,0.3505,0.0936,0.402
5.419000,0.1614,0.1041,0.1493,0.243
5.424000,0.1708,0.2069,0.2391,0.359
5.429000,-0.0228,0.1303,0.2000,0.240
5.434000,-0.0655,0.0801,0.0921,0.139
5.439000,-0.1108,0.0085,0.0393,0.118
5.446000,-0.1491,-0.0128,-0.0182,0.151
5.448000,-0.3215,-0.2084,-0.0398,0.385
5.453000,-0.2412,-0.1430,-0.1472,0.317
5.460000,-0.1470,-0.0585,-0.0803,0.177
5.463000,-0.0080,-0.0719,-0.1283,0.147
5.468000,0.1020,0.0032,0.1656,0.195
5.473000,0.3890,0.1116,0.0648,0.410
5.479000,0.4564,0.0213,-0.1219,0.473
5.483000,0.6033,0.0338,-0.0907,0.611
5.498000,0.5740,0.0125,-0.0379,0.575
5.499000,0.6126,0.1201,0.1895,0.652
5.501000,0.4370,0.0313,0.0823,0.446
5.521000,0.2456,0.0954,-0.0030,0.263
5.522000,0.0762,0.0781,-0.0329,0.114
5.522000,-0.0283,0.0249,-0.1226,0.128
5.523000,-0.2833,-0.0354,-0.2553,0.383
5.523000,-0.5052,-0.0714,-0.1850,0.543
5.527000,-0.4002,0.0887,-0.0026,0.410
5.531000,-0.3150,0.1843,0.0000,0.365
5.536000,-0.2138,0.1271,-0.0139,0.249
5.542000,0.0257,0.0675,-0.1184,0.139
5.550000,0.1141,-0.0325,-0.3399,0.360
5.551000,-0.0078,-0.1754,-0.2816,0.332
5.556000,-0.2374,-0.2678,-0.2379,0.430
5.565000,-0.3695,-0.3791,-0.1204,0.543
5.566000,-0.2394,-0.2151,-0.0627,0.328
5.571000,-0.1244,-0.0367,0.0188,0.131
5.576000,-0.0672,0.0770,-0.0001,0.102
5.583000,0.0161,0.0855,-0.0500,0.100
5.587000,0.1614,0.0175,-0.0495,0.170
5.590000,0.1944,-0.0313,-0.1087,0.225
5.595000,0.1008,-0.1375,-0.1057,0.201
5.599000,-0.0118,-0.2315,-0.0880,0.248
5.604000,-0.1201,-0.2105,-0.1475,0.284
5.610000,-0.2928,-0.2086,-0.1682,0.397
5.615000,-0.3317,-0.2568,-0.0549,0.423
5.620000,-0.2858,-0.3237,0.0076,0.432
5.629000,-0.0255,-0.2851,-0.1405,0.319
5.630000,0.0979,-0.1771,0.0699,0.214
5.634000,-0.0180,-0.1504,0.2588,0.300
5.651000,-0.2605,-0.3029,0.2445,0.468
5.653000,-0.1570,-0.2542,0.3355,0.449
5.653000,0.0920,-0.1051,0.0246,0.142
5.654000,0.3837,0.1921,-0.1574,0.457
5.660000,0.3870,0.2424,-0.1476,0.480
5.664000,0.3861,0.1156,-0.1279,0.423
5.669000,0.1826,-0.1498,-0.0271,0.238
5.673000,0.2304,-0.3026,-0.2040,0.432
5.678000,0.3334,-0.1541,-0.2134,0.425
5.683000,0.5776,0.1064,-0.1440,0.605
5.689000,0.5144,0.1775,-0.3019,0.622
5.693000,0.6744,0.2578,-0.4980,0.877
5.697000,0.8354,0.3017,-0.5052,1.022
5.703000,0.8543,0.3786,-0.2235,0.961
5.707000,0.7886,0.2685,-0.0379,0.834
5.712000,0.8776,0.0695,-0.0678,0.883
5.717000,0.8227,-0.0796,-0.3554,0.900
5.723000,0.7572,-0.2339,-0.4131,0.894
5.727000,0.4826,-0.4097,-0.6291,0.893
5.731000,0.3664,-0.7862,-0.6882,1.107
5.738000,0.0623,-1.1577,-0.3345,1.207
5.742000,-0.3081,-1.0938,-0.8565,1.423
5.747000,0.0660,-1.2396,-0.4130,1.308
5.751000,-0.1105,-1.8631,-0.1883,1.876
5.757000,-0.8563,-2.3062,-0.9094,2.623
5.762000,-0.7201,-2.8098,-0.2137,2.908
5.765000,-0.2555,-3.0253,0.5227,3.081
5.775000,-0.5492,-2.5402,-0.1526,2.603
5.776000,-0.2324,-1.6463,0.3012,1.690
5.783000,0.3677,-0.4521,0.4159,0.716
5.790000,0.6091,-0.2487,0.2017,0.688
5.791000,0.9750,-0.7984,0.3451,1.307
5.795000,1.0895,-2.0484,1.4145,2.717
5.801000,0.5245,-1.5008,0.5490,1.682
5.805000,0.5067,-0.1369,-0.5717,0.776
5.811000,1.1158,-0.2421,-0.4472,1.226
5.815000,0.7749,-0.2521,0.4604,0.936
5.819000,0.5369,-1.2283,0.4791,1.424
5.825000,0.2138,-2.7531,0.1563,2.766
5.829000,0.1898,-2.3905,-0.6257,2.478
5.834000,0.3068,-1.5981,-1.1036,1.966
5.839000,2.1011,2.3904,-1.4153,3.483
5.844000,3.1195,5.1393,-0.7582,6.060
5.848000,2.7700,6.3723,-0.5211,6.968
5.858000,1.7589,5.4345,-0.4326,5.728
5.860000,1.3405,4.4250,0.3714,4.639
5.864000,1.0525,2.7560,0.9389,3.096
5.882000,0.5288,1.9149,1.0487,2.246
5.885000,0.4280,1.7435,0.9564,2.034
5.886000,0.5700,1.9326,1.1620,2.326
5.887000,0.0537,1.5044,0.6995,1.660
5.887000,-0.0147,1.1005,1.0900,1.549
5.894000,0.1568,0.7398,1.4647,1.648
5.899000,-0.0647,0.5082,0.9649,1.092
5.903000,-0.8951,0.5422,-0.3607,1.107
5.909000,-0.7035,0.1587,-0.2385,0.760
5.912000,-0.3914,0.0390,0.1079,0.408
5.917000,-0.4484,0.0153,-0.1915,0.488
5.922000,0.4287,-0.2709,0.8741,1.011
5.928000,0.4917,-0.2872,0.6592,0.871
5.931000,-0.3930,0.3130,0.0668,0.507
5.937000,-0.7396,0.2363,0.2605,0.819
5.941000,-1.2669,0.5975,0.2064,1.416
5.946000,-0.9261,0.5528,0.5621,1.216
5.951000,-0.5275,0.5109,1.2385,1.440
5.956000,-0.1035,0.2971,1.2529,1.292
5.960000,-1.1998,0.4754,-0.4836,1.378
5.966000,-1.8507,0.6280,-0.4075,1.996
5.971000,-1.4818,0.2316,0.1881,1.512
5.976000,-1.3762,0.3336,-0.0007,1.416
5.981000,-1.4357,0.3619,-0.4253,1.541
5.985000,-0.8073,-0.2472,-0.7724,1.144
5.991000,-0.6354,-0.2169,-0.9840,1.191
5.996000,-1.2943,-0.0068,-0.9985,1.635
6.009000,-1.5346,0.0579,-0.4975,1.614
6.011000,-1.2300,0.0420,-0.2529,1.256
6.012000,-0.9327,0.1128,0.0582,0.941
6.020000,-1.0414,0.1193,-0.1255,1.056
6.020000,-1.0660,0.0762,-0.1987,1.087
6.024000,-0.7699,-0.0023,-0.3792,0.858
6.029000,-0.6069,-0.0110,-0.2491,0.656
6.035000,-0.7919,0.0093,-0.7384,1.083
6.040000,0.3626,-0.1277,-0.4532,0.594
6.045000,0.9451,-0.0065,-0.6998,1.176
6.049000,1.1722,0.1548,-0.3542,1.234
6.054000,1.0591,0.0336,-0.0929,1.064
6.059000,1.0938,0.0338,-0.0732,1.097
6.063000,0.9439,-0.0739,-0.3713,1.017
6.069000,0.7191,-0.1675,-0.4856,0.884
6.073000,0.4217,-0.2445,-0.5456,0.732
6.078000,0.3046,-0.3095,-0.5350,0.689
6.083000,0.0184,-0.2502,-0.3743,0.451
6.087000,-0.4828,-0.1932,-0.3197,0.610
6.093000,-0.8765,-0.1242,-0.2443,0.918
6.099000,-1.3766,-0.0618,-0.1483,1.386
6.103000,-1.7015,0.0345,0.0065,1.702
6.108000,-2.0862,0.1076,0.1845,2.097
6.112000,-2.3685,0.1862,0.2720,2.391
6.118000,-1.9758,0.1603,0.5362,2.054
6.123000,-0.6189,0.0111,0.4872,0.788
6.127000,0.4847,-0.1354,0.3758,0.628
6.145000,1.3963,-0.3152,0.3196,1.467
6.147000,1.8596,-0.4428,0.0799,1.913
6.148000,2.2728,-0.4803,-0.0589,2.324
6.151000,2.1728,-0.4160,-0.3039,2.233
6.151000,1.8899,-0.4004,-0.6849,2.050
6.156000,1.4909,-0.1896,-0.9420,1.774
6.161000,0.8174,-0.0393,-0.9094,1.223
6.166000,0.0814,0.0366,-0.4785,0.487
6.171000,-0.4073,0.1434,-0.1949,0.474
6.176000,-0.6881,0.2097,-0.1747,0.740
6.181000,-1.0056,0.2595,-0.1450,1.049
6.186000,-0.9779,0.1997,-0.2565,1.031
6.190000,-0.7223,0.1572,-0.1338,0.751
6.194000,-0.5159,0.1915,0.2853,0.620
6.200000,-0.1624,0.1231,0.3318,0.389
6.205000,-0.0751,0.0907,0.6325,0.643
6.209000,0.3682,-0.0255,0.2027,0.421
6.220000,0.1040,0.0472,0.5916,0.603
6.221000,0.1747,-0.0071,0.4148,0.450
6.228000,0.3485,-0.0495,0.0432,0.355
6.233000,0.5633,-0.0896,-0.0148,0.571
6.236000,0.6758,-0.1084,-0.1133,0.694
6.239000,0.4977,-0.0892,0.0344,0.507
6.243000,0.5573,-0.1037,-0.1023,0.576
6.248000,0.5054,-0.0945,-0.2653,0.579
6.253000,0.1818,-0.0473,-0.0600,0.197
6.258000,0.1050,-0.0576,-0.1588,0.199
6.264000,0.0980,-0.0440,-0.2697,0.290
6.268000,0.1796,-0.0018,-0.2111,0.277
6.275000,0.1634,-0.0314,-0.0787,0.184
6.279000,0.4488,-0.1016,-0.3482,0.577
6.283000,0.6222,-0.0644,-0.3861,0.735
6.288000,0.5861,0.1207,-0.0302,0.599
6.292000,0.0133,-0.0172,0.1532,0.155
6.298000,-0.1286,-0.0380,0.2985,0.327
6.303000,-0.4592,-0.1806,0.0855,0.501
6.307000,-0.3073,0.0094,0.1790,0.356
6.316000,-0.0341,0.0271,-0.0141,0.046
6.318000,-0.3709,-0.0102,0.0893,0.382
6.323000,-0.4973,0.0173,-0.2141,0.542
6.326000,-0.1081,0.1644,-0.1202,0.231
6.336000,0.1128,0.0916,0.1153,0.185
6.338000,-0.0249,0.0569,-0.0315,0.070
6.342000,-0.4540,0.0487,0.0012,0.457
6.347000,-0.6418,0.0478,-0.2938,0.708
6.351000,-0.5391,0.0137,-0.3975,0.670
6.356000,-0.2032,0.0637,-0.5253,0.567
6.361000,-0.2555,0.0899,-0.3813,0.468
6.366000,-0.3488,0.0684,-0.2615,0.441
6.370000,-0.0458,-0.0485,-0.3239,0.331
6.375000,0.2593,-0.0959,-0.4058,0.491
6.384000,0.5476,-0.1003,-0.4141,0.694
6.386000,0.8412,-0.0594,-0.2412,0.877
6.390000,0.9518,-0.0692,0.0342,0.955
6.397000,0.8202,-0.1606,0.5390,0.995
6.402000,0.5182,-0.1138,0.2046,0.569
6.405000,0.4831,0.0642,0.1265,0.503
6.411000,0.4965,0.1628,0.3358,0.621
6.417000,0.7406,-0.0235,0.3709,0.829
6.420000,0.2950,-0.0044,-0.0813,0.306
6.424000,-0.1734,0.1652,-0.1244,0.270
6.430000,-0.5295,0.0359,0.0478,0.533
6.436000,-0.4030,0.0887,-0.0070,0.413
6.444000,-0.4279,0.0363,-0.1212,0.446
6.445000,-0.4488,-0.0636,-0.0848,0.461
6.449000,-0.1239,0.0066,-0.3616,0.382
6.454000,-0.0389,-0.0953,0.1147,0.154
6.458000,0.5577,-0.1613,-0.1720,0.606
6.464000,0.9922,-0.1151,0.0812,1.002
6.470000,1.4450,0.0141,-0.1511,1.453
6.474000,1.7279,-0.1657,-0.0748,1.737
6.494000,1.9085,-0.2003,-0.1181,1.923
6.495000,2.1570,0.0152,-0.2046,2.167
6.495000,2.3019,-0.0357,-0.0259,2.302
6.495000,2.5233,0.0581,-0.1730,2.530
6.499000,2.0278,0.1961,-0.2105,2.048
6.504000,1.1086,0.5078,0.3015,1.256
6.508000,0.4415,0.6441,0.7444,1.079
6.512000,-1.5527,0.6750,-0.6358,1.809
6.517000,-4.0813,0.4966,-0.5515,4.148
6.522000,-6.2730,0.3705,-0.4820,6.302
6.528000,-7.0015,0.1826,-0.1042,7.005
6.532000,-5.8712,-0.1816,0.2383,5.879
6.538000,-3.3901,-0.1514,0.2301,3.401
6.542000,-1.4629,0.1548,0.0478,1.472
6.549000,-0.5542,0.0979,0.3394,0.657
6.552000,-0.1834,-0.0686,0.2920,0.352
6.556000,-0.3943,-0.1678,0.1473,0.453
6.562000,-0.5868,-0.1162,-0.0040,0.598
6.571000,-0.9263,-0.0451,-0.1694,0.943
6.571000,-1.0310,-0.1003,-0.2465,1.065
6.577000,-0.2273,-0.2861,-0.7045,0.794
6.581000,1.6122,-0.4906,-0.7287,1.836
6.586000,3.2448,-0.4325,-0.5031,3.312
6.591000,3.7673,-0.1248,-0.0841,3.770
6.601000,3.3256,-0.3257,0.0433,3.342
6.604000,2.2166,-0.3748,-0.2258,2.259
6.628000,0.9837,-0.1069,-0.1221,0.997
6.629000,-0.1028,-0.0141,0.2372,0.259
6.629000,-0.7124,0.0212,-0.0133,0.713
6.629000,-0.5982,0.1093,-0.2517,0.658
6.630000,-0.2053,0.1259,-0.3634,0.436
6.630000,0.0266,0.0708,-0.1670,0.183
6.635000,0.0934,0.0492,-0.0427,0.114
6.639000,0.0645,0.0229,0.0602,0.091
6.644000,-0.0766,0.0300,0.0412,0.092
6.650000,-0.1629,-0.0321,-0.1646,0.234
6.655000,0.0117,0.0373,-0.3079,0.310
6.659000,0.0977,0.0899,-0.2887,0.318
6.664000,0.0046,0.0395,-0.1066,0.114
6.669000,-0.1342,0.0515,-0.1164,0.185
6.673000,-0.6557,-0.4693,-3.7979,3.883
6.679000,0.4088,0.3736,-1.5251,1.622
6.683000,1.0673,0.2403,1.8325,2.134
6.688000,-0.1713,-0.5342,2.4717,2.535
6.694000,-1.1791,0.0448,0.3765,1.239
6.699000,0.3003,0.2077,-0.5518,0.662
6.704000,0.7049,-0.0527,0.0289,0.707
6.712000,0.3547,0.0645,2.7482,2.772
6.715000,-0.3254,0.0543,4.5906,4.602
6.718000,-0.2072,-0.2241,-0.6868,0.751
6.726000,-0.0348,-0.3632,-3.1096,3.131
6.731000,0.0751,-0.0595,-2.7267,2.728
6.733000,0.0630,0.3947,-0.9649,1.044
6.737000,-0.4938,0.4445,-0.0381,0.666
6.743000,-0.6999,0.1361,0.0890,0.719
6.746000,-0.3422,0.0121,0.2862,0.446
6.751000,-0.4923,0.3306,0.3234,0.675
6.766000,-0.2419,0.1183,0.1608,0.314
6.767000,0.6654,-0.0747,-0.5960,0.896
6.768000,2.1653,-0.7217,-1.1286,2.546
6.773000,1.7314,0.2708,-0.3832,1.794
6.789000,-0.6146,0.4372,0.4425,0.874
6.790000,-1.5322,-0.1325,0.8191,1.742
6.790000,-0.7824,-0.1634,-0.0612,0.802
6.792000,0.5655,-0.4473,-0.4195,0.834
6.796000,1.3513,0.0575,-0.2164,1.370
6.801000,0.4599,0.2291,0.3596,0.627
6.806000,-0.5277,-0.0395,0.3358,0.627
6.810000,-0.5135,-0.0709,-0.2805,0.589
6.816000,0.0283,-0.0424,-0.3037,0.308
6.820000,0.2921,0.0219,0.0530,0.298
6.825000,0.1879,-0.0143,0.2997,0.354
6.831000,-0.0139,0.0115,0.2336,0.234
6.835000,-0.0770,0.0062,0.0652,0.101
6.841000,-0.1473,-0.0014,0.0263,0.150
6.845000,-0.1461,0.0102,0.0306,0.150
6.850000,-0.1378,0.0241,-0.0918,0.167
6.854000,0.0184,0.0166,-0.3456,0.347
6.875000,0.2939,0.0522,-0.3009,0.424
6.877000,0.8467,0.1521,-0.5123,1.001
6.878000,0.9007,-0.0040,-0.5541,1.057
6.878000,0.3609,-0.0432,-0.4005,0.541
6.879000,-0.2277,-0.0249,0.0075,0.229
6.885000,-0.4525,-0.0019,-0.1996,0.495
6.899000,-0.2928,0.1312,-0.2441,0.403
6.899000,-0.0168,0.0206,-0.3415,0.342
6.899000,0.2564,0.0200,-0.0203,0.258
6.903000,0.2283,-0.0643,0.3775,0.446
6.908000,0.0596,-0.0555,0.4149,0.423
6.914000,-0.2069,-0.0085,0.1209,0.240
6.919000,-0.4399,-0.0021,-0.2705,0.516
6.923000,-0.4989,-0.0147,-0.3655,0.619
6.928000,-0.4367,-0.0653,-0.0760,0.448
6.932000,-0.2819,-0.0798,0.3756,0.476
6.937000,0.0563,-0.0441,0.2415,0.252
6.942000,0.3775,-0.0778,0.0479,0.388
6.947000,0.6797,-0.0996,0.0295,0.688
6.951000,0.7508,-0.1145,-0.0411,0.761
6.959000,0.6627,-0.0770,-0.0806,0.672
6.962000,0.5494,-0.1498,0.3033,0.645
6.967000,0.4107,-0.1677,0.2355,0.502
6.977000,0.0650,-0.1500,0.3091,0.350
6.978000,-0.2107,-0.1252,0.2970,0.385
6.981000,-0.3547,-0.0573,0.0868,0.370
6.986000,-0.3846,-0.0181,0.1423,0.410
6.990000,-0.5848,0.1120,0.0736,0.600
6.996000,-0.7736,0.0533,0.0770,0.779
7.001000,-0.6646,0.1383,-0.2878,0.737
7.006000,-0.5999,0.2379,-0.5237,0.831
7.011000,-0.5865,0.0939,-0.5449,0.806
7.016000,-0.2823,0.1224,-0.5262,0.610
7.021000,-0.0314,0.1462,-0.8119,0.826
7.027000,0.2286,0.1438,-0.4792,0.550
7.031000,0.1398,0.1652,-0.5849,0.624
7.035000,0.1493,0.1054,-0.4616,0.496
7.043000,0.2044,0.0289,-0.1692,0.267
7.046000,0.2502,-0.0237,0.2640,0.364
7.051000,0.2844,-0.0142,0.3005,0.414
7.072000,0.3216,0.1049,0.1298,0.362
7.079000,0.5053,-0.0009,0.2201,0.551
7.080000,0.7568,0.0509,0.2177,0.789
7.080000,0.5674,0.0663,0.2254,0.614
7.080000,0.2981,-0.1144,0.4629,0.562
7.080000,0.0560,0.0203,0.2705,0.277
7.084000,-0.3477,0.1213,0.1096,0.384
7.089000,-0.5101,0.1505,-0.1444,0.551
7.093000,-0.3360,0.2708,-0.4319,0.611
7.098000,-0.3200,0.0731,-0.7055,0.778
7.105000,-0.1922,0.1196,-0.2629,0.347
7.108000,0.1889,0.3167,0.2169,0.428
7.113000,0.1858,0.1835,0.0940,0.278
7.119000,0.0997,0.3347,0.0409,0.352
7.124000,-0.3707,0.1606,0.0570,0.408
7.129000,-0.2027,0.1302,-0.1706,0.295
7.134000,0.0341,0.0760,-0.2908,0.302
7.144000,-0.0138,0.0960,-0.1816,0.206
7.147000,-0.0546,0.1997,0.1425,0.251
7.148000,-0.1003,0.0045,-0.1359,0.169
7.154000,-0.2677,-0.0207,-0.0936,0.284
7.157000,-0.2965,0.2887,-0.0949,0.425
7.162000,-0.4926,0.3899,0.1257,0.641
7.166000,-0.7297,0.3859,-0.0604,0.828
7.172000,-0.8120,-0.0480,-0.0458,0.815
7.176000,-0.4967,-0.2111,0.0407,0.541
7.181000,0.2309,0.0827,0.5409,0.594
7.187000,0.5636,0.2684,0.4820,0.789
7.191000,0.4549,0.3079,0.4240,0.694
7.196000,-0.0993,-0.0044,0.3952,0.407
7.211000,-0.3754,0.0302,0.3647,0.524
7.213000,-0.8568,-0.0643,0.2368,0.891
7.216000,-1.4538,-0.0055,0.1262,1.459
7.217000,-1.5698,-0.2545,-0.0364,1.591
7.239000,-1.3588,-0.1012,-0.2272,1.381
7.240000,-1.5234,-0.0361,-0.6495,1.656
7.241000,-0.7703,0.0009,-0.0076,0.770
7.241000,-0.1769,0.1024,0.3882,0.439
7.242000,-0.0626,0.1177,0.3721,0.395
7.246000,-0.1064,0.3504,-0.0317,0.368
7.250000,-0.2096,0.1764,-0.0444,0.278
7.255000,0.1726,0.4925,-0.6135,0.805
7.260000,0.4554,-0.1050,-0.1693,0.497
7.264000,1.0015,-0.2956,-0.3908,1.115
7.271000,1.2476,-0.4383,-0.4865,1.409
7.275000,1.2773,-0.5309,-0.4398,1.452
7.281000,1.2726,-0.5974,-0.4088,1.464
7.284000,1.4511,-0.4034,-0.9769,1.795
7.290000,1.1819,-0.5588,-0.4158,1.372
7.294000,1.2894,-0.6115,-0.3297,1.465
7.298000,1.1093,-0.8220,-1.2678,1.874
7.304000,1.7767,-0.4923,-1.4730,2.360
7.308000,2.5969,-0.5148,-1.2669,2.935
7.313000,2.8753,-0.4161,-0.8646,3.031
7.318000,2.4748,-0.3423,-0.2701,2.513
7.323000,1.6971,0.0508,0.4264,1.751
7.328000,0.7233,-0.0018,0.8693,1.131
7.333000,0.4571,-0.2052,0.1485,0.523
7.337000,0.6915,-0.3606,-0.1533,0.795
7.342000,0.8741,-0.2601,0.0946,0.917
7.348000,0.9933,-0.1384,-0.0235,1.003
7.353000,1.2306,-0.1461,-0.1865,1.253
7.357000,1.2831,-0.2447,-0.2755,1.335
7.362000,1.6436,-0.1786,-0.3264,1.685
7.368000,1.9019,-0.3400,-0.3798,1.969
7.372000,2.1873,-0.2076,-0.1873,2.205
7.377000,1.6999,-0.2742,-0.3223,1.752
7.382000,1.1495,-0.2383,-0.0962,1.178
7.388000,1.0871,-0.1762,0.2951,1.140
7.391000,1.0874,-0.1812,0.1531,1.113
7.397000,0.7196,-0.0621,0.2105,0.752
7.405000,0.0358,0.0021,0.1896,0.193
7.409000,-0.3605,-0.0028,0.1076,0.376
7.413000,-0.9891,0.1505,0.0596,1.002
7.420000,-1.2724,0.0533,0.1838,1.287
7.423000,-1.8211,0.1194,0.1289,1.830
7.426000,-2.6716,0.0641,-0.0832,2.674
7.431000,-3.3689,0.3180,-0.2972,3.397
7.439000,-3.6829,0.4148,-0.3152,3.720
7.441000,-3.5664,0.2900,0.0277,3.578
7.446000,-2.9741,0.3596,0.2029,3.003
7.465000,-2.4886,0.3484,0.0485,2.513
7.468000,-2.0177,0.4045,0.0285,2.058
7.469000,-1.5822,0.1931,-0.1441,1.600
7.471000,-1.1644,0.1543,-0.2688,1.205
7.472000,-1.0097,0.2735,-0.1999,1.065
7.475000,-0.9861,0.2422,0.1222,1.023
7.480000,-1.2704,-0.0066,0.2081,1.287
7.486000,-1.4924,-0.0660,0.3180,1.527
7.488000,-1.5973,-0.0535,0.4116,1.650
7.494000,-1.6191,-0.1078,0.5968,1.729
7.498000,-1.0508,0.7535,2.5512,2.860
7.503000,-1.1879,-0.5493,0.5438,1.417
7.508000,-1.7150,-0.3280,0.4145,1.795
7.513000,-2.2179,-0.0232,0.2233,2.229
7.518000,-2.0412,0.2076,0.2956,2.073
7.523000,-1.8737,0.2114,0.7130,2.016
7.528000,-1.7078,0.2322,0.5388,1.806
7.534000,-1.3544,0.2030,0.3205,1.407
7.538000,-1.3939,0.2914,0.3183,1.459
7.543000,-1.2809,0.3919,0.1547,1.348
7.557000,0.1700,0.4545,-0.1418,0.506
7.559000,1.7814,0.3451,-1.5727,2.401
7.560000,2.2030,-0.5792,-1.1449,2.549
7.563000,3.3256,-0.6589,-0.9432,3.519
7.584000,4.3093,-0.3948,-0.1140,4.329
7.585000,5.5626,0.0520,0.6008,5.595
7.586000,3.4407,-0.5717,2.5232,4.305
7.586000,0.1564,-1.6640,-0.3759,1.713
7.586000,-0.9007,-0.8669,-5.3097,5.455
7.593000,-0.2008,0.5564,-3.6330,3.681
7.597000,0.1060,0.3771,-0.1374,0.415
7.602000,0.0014,0.1740,1.5986,1.608
7.606000,-0.2535,-0.0195,1.2085,1.235
7.610000,-0.3032,-0.1603,0.6011,0.692
7.616000,-0.0857,-0.1790,0.0763,0.213
7.620000,0.1170,0.0079,-0.3165,0.338
7.625000,0.1117,0.0583,-0.5203,0.535
7.630000,0.0446,-0.0203,-0.4927,0.495
7.636000,0.0563,-0.0415,-0.2080,0.219
7.640000,0.1136,-0.0267,0.1431,0.185
7.647000,0.1089,-0.0312,0.2789,0.301
7.650000,0.0469,-0.0572,0.1640,0.180
7.654000,0.0043,-0.0545,-0.0054,0.055
7.660000,-0.0194,-0.0135,-0.1464,0.148
7.666000,-0.0258,0.0082,-0.1483,0.151
7.670000,0.0203,-0.0012,-0.1044,0.106
7.674000,0.0305,-0.0129,-0.0492,0.059
7.690000,0.0333,-0.0127,-0.0059,0.036
7.692000,0.0339,-0.0315,0.0182,0.050
7.693000,0.0584,-0.0265,0.0233,0.068
7.711000,0.0921,-0.0286,0.0111,0.097
7.712000,0.1074,-0.0164,-0.0340,0.114
7.712000,0.0895,-0.0307,-0.0834,0.126
7.712000,0.0619,-0.0688,-0.0732,0.118
7.713000,0.0798,-0.0542,-0.0681,0.118
7.719000,0.0784,-0.0755,-0.0394,0.116
7.723000,0.0725,-0.1469,-0.0657,0.177
7.729000,0.1143,-0.2135,0.0272,0.244
7.738000,0.2758,-0.3349,0.1389,0.456
7.739000,0.4253,-0.3702,0.3697,0.674
7.743000,0.4580,-0.4222,0.4639,0.777
7.747000,0.4841,-0.5125,0.5917,0.920
7.752000,0.5511,-0.4713,0.6238,0.957
7.758000,0.5787,-0.2822,0.4893,0.809
7.763000,0.5117,-0.0887,0.3251,0.613
7.767000,0.3522,-0.1012,0.1995,0.417
7.771000,0.2603,-0.1089,0.0599,0.288
7.796000,0.2162,-0.0210,0.0467,0.222
7.797000,0.1661,0.0021,-0.0594,0.176
7.797000,0.1163,-0.0011,-0.0622,0.132
7.799000,0.0575,0.0051,-0.0384,0.069
7.800000,-0.0159,0.0640,-0.1655,0.178
7.801000,-0.0410,0.0583,-0.2308,0.242
7.811000,-0.0422,0.0716,-0.1644,0.184
7.812000,-0.0316,0.1519,-0.1938,0.248
7.815000,-0.0350,0.2417,-0.0653,0.253
7.821000,-0.1149,0.2165,-0.1323,0.279
7.825000,-0.2332,0.1890,-0.3160,0.436
7.830000,-0.2538,0.2883,-0.4780,0.613
7.837000,-0.2794,0.3278,-0.6283,0.762
7.840000,-0.3606,0.2048,-0.3869,0.567
7.845000,-0.4924,0.1489,0.1124,0.527
7.851000,-0.5124,0.2605,0.2437,0.624
7.855000,-0.3707,0.2405,-0.0065,0.442
7.863000,0.4730,-0.1451,-1.0661,1.175
7.865000,5.1440,-1.2544,-4.2709,6.803
7.870000,4.6697,1.9293,-2.3670,5.580
7.874000,1.2680,0.5725,1.1891,1.830
7.881000,-0.9050,-0.2405,1.3260,1.623
7.886000,-2.2594,-0.3402,0.8334,2.432
7.890000,-2.7627,-0.0762,0.4598,2.802
7.899000,-2.4457,-0.1346,0.2166,2.459
7.900000,-1.5243,-0.0658,0.2542,1.547
7.905000,-0.6785,0.1203,-0.0803,0.694
7.916000,-0.1792,0.1055,-0.3711,0.425
7.916000,-0.0394,0.1601,-0.3320,0.371
7.917000,0.0116,0.1573,0.0608,0.169
7.924000,0.4379,0.0590,0.2334,0.500
7.928000,0.6132,0.0585,0.2129,0.652
7.933000,0.6200,-0.0162,0.2673,0.675
7.938000,0.4703,-0.1149,0.3466,0.595
7.944000,0.3258,-0.2517,0.1153,0.428
7.947000,0.1751,-0.2069,-0.1947,0.334
7.952000,-0.2168,-0.1692,-0.3878,0.475
7.957000,-0.4531,-0.0478,-0.5934,0.748
7.962000,0.1443,-0.0770,-0.8859,0.901
7.966000,0.8754,0.0469,-0.9740,1.310
7.972000,0.8948,0.0726,-0.8314,1.224
7.978000,0.4335,0.3849,-0.6374,0.862
7.982000,-0.0444,0.1900,-0.4129,0.457
7.987000,-0.1938,0.1316,-0.3254,0.401
7.993000,0.3526,0.1593,-0.1879,0.430
7.998000,1.2458,0.0387,0.3895,1.306
8.002000,1.1346,-0.3449,0.7212,1.388
8.012000,0.2230,-0.2671,0.2455,0.426
8.014000,-0.4265,-0.0628,-0.3153,0.534
8.018000,-0.3829,-0.0498,-0.3191,0.501
8.022000,-0.0125,-0.0557,-0.1083,0.122
8.042000,0.2191,-0.0808,0.1406,0.273
8.043000,0.3840,-0.0581,0.1748,0.426
8.044000,0.3847,-0.1383,0.0374,0.410
8.044000,0.5297,-0.0655,-0.4318,0.687
8.045000,1.1157,0.0024,-0.5161,1.229
8.050000,0.9985,0.1418,-0.7413,1.252
8.055000,0.5993,0.0014,-0.7804,0.984
8.060000,0.5202,-0.1843,-0.7580,0.938
8.065000,0.7226,-0.1426,-0.6627,0.991
8.070000,0.7907,-0.0722,-0.7140,1.068
8.075000,0.7173,0.0530,-0.2874,0.775
8.080000,0.8415,-0.2115,-0.0113,0.868
8.084000,1.0919,-0.3777,0.3730,1.214
8.090000,1.2993,-0.3192,0.4735,1.419
8.094000,1.2219,0.2268,0.4004,1.306
8.099000,1.4024,0.5117,0.2324,1.511
8.103000,1.1546,0.3159,0.1397,1.205
8.110000,0.6528,0.2447,0.3444,0.778
8.113000,0.6447,0.4247,0.1074,0.779
8.119000,0.4339,0.5856,0.0746,0.733
8.127000,-0.2761,0.6270,0.1183,0.695
8.130000,-1.2823,0.2217,-0.1818,1.314
8.133000,-0.9389,0.1971,-0.0173,0.960
8.139000,-0.3626,-0.4007,-1.3642,1.467
8.158000,-1.2848,0.1832,-1.2660,1.813
8.159000,-1.4998,0.4537,0.3120,1.598
8.159000,-1.7320,0.2652,0.0978,1.755
8.160000,-1.7568,-0.1047,-0.5586,1.846
8.167000,-1.6605,-0.2014,-0.3049,1.700
8.167000,-2.0169,0.1084,-0.2198,2.032
8.173000,-2.2597,-0.1558,0.6657,2.361
8.177000,-2.1243,-0.1544,0.2911,2.150
8.183000,-1.9359,-0.1246,0.2616,1.957
8.188000,-2.1123,-0.3530,0.0317,2.142
8.193000,-1.9461,-0.2610,0.4616,2.017
8.198000,-1.5352,-0.2481,0.3563,1.595
8.202000,-1.2857,-0.3429,-0.1691,1.341
8.206000,-1.2065,-0.3708,0.1136,1.267
8.211000,-1.0126,-0.1789,0.2837,1.067
8.216000,-0.6630,-0.2144,0.5449,0.885
8.221000,-0.3557,-0.1806,0.1780,0.437
8.230000,-0.0235,-0.1589,0.4691,0.496
8.231000,0.0069,-0.3213,0.4953,0.590
8.236000,0.0680,-0.4787,0.3930,0.623
8.249000,0.0192,-0.5022,0.3316,0.602
8.250000,-0.1541,-0.4635,0.5117,0.707
8.251000,-0.0552,-0.3316,0.2449,0.416
8.262000,-0.1646,-0.2214,-0.0144,0.276
8.263000,-0.4990,0.0152,0.0754,0.505
8.266000,-0.4658,0.2779,-0.0451,0.544
8.269000,-0.2757,0.3132,-0.2154,0.470
8.282000,0.0095,0.3078,-0.3544,0.470
8.282000,0.1341,0.3502,-0.3597,0.520
8.284000,0.2565,0.3592,-0.4180,0.608
8.289000,0.3577,0.2917,-0.3638,0.588
8.295000,0.5912,0.1575,-0.3100,0.686
8.299000,0.5792,0.2839,-0.2181,0.681
8.306000,0.5227,0.2693,-0.2867,0.654
8.309000,0.5412,0.3312,-0.0803,0.640
8.314000,0.5390,0.2973,-0.0864,0.622
8.320000,0.4206,0.1560,0.1493,0.473
8.324000,0.3363,0.2537,0.0841,0.430
8.328000,0.2766,0.2414,0.1726,0.406
8.333000,0.1958,0.2218,0.2807,0.408
8.339000,0.1105,0.2476,0.5666,0.628
8.343000,-0.1541,0.2349,0.7627,0.813
8.349000,-0.3733,0.2054,0.8791,0.977
8.354000,-0.2753,-0.1301,0.6481,0.716
8.357000,0.0660,-0.6374,0.1719,0.663
8.362000,0.6029,-0.9241,-0.1393,1.112
8.367000,1.0973,-0.9809,-0.5164,1.560
8.374000,0.6537,-0.5044,0.1856,0.846
8.377000,0.0416,0.1172,1.6562,1.661
8.382000,-0.0942,0.4653,2.7481,2.789
8.400000,-0.3761,0.0311,2.6507,2.677
8.401000,-0.9385,-0.5750,2.0744,2.348
8.401000,-1.6747,-0.7361,1.7783,2.551
8.403000,-2.1536,-0.5529,1.8493,2.892
8.406000,-2.3839,-0.3223,1.9764,3.113
8.412000,-2.3808,-0.2426,1.9427,3.082
8.417000,-2.4220,-0.2253,1.5187,2.868
8.421000,-2.3328,-0.6811,0.4914,2.479
8.426000,-1.4151,-1.2485,-1.0490,2.159
8.431000,0.5240,-1.7046,-4.8164,5.136
8.435000,2.9260,-1.2441,-4.0299,5.133
8.440000,4.7867,-0.4204,-0.5970,4.842
8.445000,5.3622,0.3018,0.4704,5.391
8.450000,4.5349,0.3895,0.8388,4.628
8.455000,2.8977,0.3215,-0.0051,2.915
8.460000,1.2948,0.4493,-0.3763,1.421
8.465000,-0.2455,0.6246,-1.2488,1.418
8.471000,-1.4086,0.6230,-1.5334,2.173
8.475000,-1.9960,0.6574,-1.9888,2.893
8.481000,-2.0571,0.5964,-2.4790,3.276
8.489000,-1.7603,0.6886,-2.6414,3.248
8.495000,-1.2728,0.5444,-2.6992,3.033
8.497000,-0.8357,0.6085,-2.5045,2.710
8.500000,-0.4913,0.4482,-1.9286,2.040
8.506000,-0.1768,0.2237,-1.2292,1.262
8.514000,0.0560,0.1956,-0.6638,0.694
8.516000,0.0736,0.0863,-0.0922,0.146
8.537000,0.0462,-0.0229,0.2278,0.234
8.538000,0.0140,-0.1104,0.4285,0.443
8.538000,-0.1613,-0.1668,0.3548,0.424
8.539000,-0.2577,-0.1658,0.6451,0.714
8.543000,-0.1535,-0.1888,0.4627,0.523
8.543000,0.0985,0.0058,0.4868,0.497
8.548000,0.3287,-0.0915,0.5715,0.666
8.556000,0.4826,-0.0407,0.4588,0.667
8.557000,0.5222,-0.0138,0.4019,0.659
8.562000,0.4671,0.0273,0.2552,0.533
8.569000,0.3865,0.0850,-0.0341,0.397
8.572000,0.3138,-0.0224,-0.3206,0.449
8.578000,0.1771,0.0927,-0.4994,0.538
8.582000,0.0791,0.0906,-0.3155,0.338
8.587000,0.1511,0.0838,-0.4717,0.502
8.591000,0.1276,0.0435,-0.4106,0.432
8.597000,-0.1298,-0.0087,-0.2949,0.322
8.601000,-0.2198,0.0181,-0.1772,0.283
8.607000,-0.1164,-0.0530,-0.2559,0.286
8.612000,0.0704,-0.0476,-0.1721,0.192
8.616000,0.1853,-0.0159,-0.0885,0.206
8.624000,0.2023,0.0157,-0.0431,0.207
8.626000,0.0475,-0.0172,-0.0215,0.055
8.631000,-0.1620,-0.0502,-0.0260,0.172
8.644000,-0.2829,-0.0113,-0.1404,0.316
8.645000,-0.2178,0.0251,-0.3003,0.372
8.655000,-0.1387,-0.0436,-0.2333,0.275
8.656000,0.0738,0.0335,-0.1594,0.179
8.657000,0.1355,-0.0136,0.0242,0.138
8.661000,0.1950,-0.0488,0.1958,0.281
8.670000,0.2547,-0.0386,0.2409,0.353
8.671000,0.2262,-0.0763,0.2626,0.355
8.680000,0.2817,-0.0565,0.2559,0.385
8.681000,0.3400,-0.0775,0.0943,0.361
8.685000,0.2431,-0.1152,0.0145,0.269
8.693000,-0.0182,-0.1146,-0.0154,0.117
8.694000,-0.1287,-0.0519,0.0620,0.152
8.701000,-0.0692,-0.0132,0.1067,0.128
8.704000,0.0642,0.0110,0.0945,0.115
8.710000,0.1517,-0.0101,0.1325,0.202
8.715000,0.1679,0.0046,0.0488,0.175
8.721000,0.1983,0.0288,0.0681,0.212
8.727000,0.1981,0.0410,0.0159,0.203
8.730000,0.1599,0.0197,-0.0600,0.172
8.737000,0.1457,0.0342,-0.0808,0.170
8.739000,0.1174,0.0249,0.0225,0.122
8.746000,0.0245,-0.0035,0.0490,0.055
8.751000,-0.0677,0.0015,0.0664,0.095
8.754000,-0.1695,-0.0175,0.1157,0.206
8.760000,-0.1593,0.0066,0.0812,0.179
8.764000,-0.0731,-0.0052,0.1161,0.137
8.769000,0.0106,-0.0408,0.2278,0.232
8.773000,0.0533,-0.0311,0.4467,0.451
8.778000,-0.0280,-0.0859,0.2698,0.285
8.783000,-0.1089,-0.0500,0.2281,0.258
8.797000,-0.1617,-0.0643,0.2200,0.281
8.798000,-0.0594,-0.0093,0.1477,0.159
8.799000,0.0547,-0.0045,0.0827,0.099
8.809000,0.0966,0.0241,0.0727,0.123
8.813000,-0.0806,-0.0358,-0.2759,0.290
8.814000,-0.2960,0.0287,-0.2894,0.415
8.823000,-0.4019,0.0286,-0.0906,0.413
8.824000,-0.4224,0.0310,-0.0116,0.424
8.826000,-0.2978,0.0358,0.0291,0.301
8.833000,-0.1354,0.0549,0.0270,0.149
8.840000,-0.0621,0.0501,0.2117,0.226
8.841000,0.1069,0.0643,-0.1101,0.166
8.845000,0.3090,0.0738,-0.1495,0.351
8.852000,0.3633,0.0737,-0.0885,0.381
8.856000,0.2842,0.0377,-0.0777,0.297
8.860000,0.2462,0.0567,-0.0933,0.269
8.867000,0.2852,0.0733,0.0202,0.295
8.871000,0.1547,0.0181,0.1123,0.192
8.876000,0.0724,0.0395,0.0993,0.129
8.881000,-0.0024,0.0464,0.1346,0.142
8.885000,-0.0653,0.0629,0.3160,0.329
8.890000,0.0032,0.0649,0.0604,0.089
8.895000,0.1719,0.0789,0.0587,0.198
8.905000,0.2308,0.0331,-0.0193,0.234
8.906000,0.3042,0.0806,0.0775,0.324
8.909000,0.2228,0.0251,0.3394,0.407
8.940000,0.1657,0.0390,0.1618,0.235
8.942000,0.2021,0.0695,0.2334,0.316
8.942000,0.1575,0.0307,0.4012,0.432
8.943000,0.1945,0.0205,0.1821,0.267
8.944000,0.2509,0.0341,0.2578,0.361
8.944000,0.1690,-0.0383,0.4272,0.461
8.944000,0.0945,-0.0343,0.2267,0.248
8.954000,0.1159,0.0391,0.5504,0.564
8.956000,0.0778,-0.0766,0.3704,0.386
8.959000,0.2214,0.0325,0.3609,0.425
8.963000,0.1430,-0.0354,0.5865,0.605
8.968000,0.2179,-0.0364,0.4374,0.490
8.972000,0.3003,-0.0327,0.5785,0.653
8.978000,0.2706,-0.1604,0.4169,0.522
8.982000,0.3705,-0.0515,0.3586,0.518
8.987000,0.3584,-0.0240,0.6456,0.739
8.992000,0.2560,-0.0276,0.3331,0.421
8.997000,0.1733,0.0189,0.5476,0.575
9.002000,0.1052,-0.0231,0.2607,0.282
9.006000,0.1499,0.0902,0.2019,0.267
9.011000,0.2184,0.0410,0.3946,0.453
9.017000,0.2132,0.0037,0.0211,0.214
9.021000,0.0840,0.1195,0.4754,0.497
9.026000,-0.0329,-0.0373,0.2916,0.296
9.033000,0.1371,0.1096,0.3717,0.411
9.037000,0.1875,-0.0209,0.3998,0.442
9.041000,0.2788,0.0568,0.2348,0.369
9.053000,0.3369,0.0722,0.5820,0.676
9.055000,0.2377,-0.0964,0.4518,0.519
9.057000,0.2299,-0.0187,0.3582,0.426
9.061000,0.2199,-0.1130,0.7078,0.750
9.080000,0.3274,-0.1274,0.4570,0.576
9.082000,0.3894,-0.0254,0.6195,0.732
9.083000,0.3447,-0.1093,0.5087,0.624
9.083000,0.4408,-0.0263,0.2477,0.506
9.086000,0.4206,-0.0651,0.4496,0.619
9.091000,0.4255,-0.1304,0.1341,0.465
9.096000,0.4884,-0.0331,0.1563,0.514
9.101000,0.4539,-0.0433,0.1119,0.469
9.106000,0.5157,-0.0081,0.0245,0.516
9.112000,0.4779,0.1204,0.0618,0.497
9.118000,0.0752,0.1102,-0.0275,0.136
9.119000,-0.3413,0.1384,-0.1401,0.394
9.124000,-0.5068,0.1165,-0.0923,0.528
9.129000,-0.1996,0.1259,-0.1281,0.268
9.134000,-0.0174,0.0613,-0.1876,0.198
9.138000,0.2005,0.0949,-0.0270,0.223
9.145000,0.2249,0.0737,0.1934,0.306
9.149000,0.1637,0.1243,0.1869,0.278
9.153000,0.0217,0.1319,0.3941,0.416
9.159000,-0.2514,0.1015,0.3536,0.446
9.164000,-0.1971,0.0116,0.3548,0.406
9.168000,0.2441,0.0535,0.4548,0.519
9.173000,0.6948,0.0597,0.7711,1.040
9.191000,0.8282,-0.0080,1.0618,1.347
9.194000,0.9412,0.0345,1.5690,1.830
9.194000,0.8190,0.0558,2.0564,2.214
9.195000,0.5307,-0.0683,2.3864,2.446
9.212000,0.8022,0.0568,2.7624,2.877
9.213000,1.0827,0.0461,2.9619,3.154
9.214000,1.6708,0.0934,3.3466,3.742
9.214000,1.9535,0.2249,3.9430,4.406
9.216000,1.8911,0.1326,4.4366,4.825
9.221000,1.5914,-0.0087,5.4161,5.645
9.227000,1.7165,0.3462,6.4756,6.708
9.231000,1.4344,-0.3542,5.9515,6.132
9.237000,2.1868,-0.2016,-0.4279,2.237
9.243000,3.2418,1.1837,2.0752,4.027
9.245000,3.1110,1.4560,6.3597,7.228
9.251000,3.4461,1.8016,8.4487,9.301
9.256000,3.5124,2.1402,6.6469,7.817
9.260000,4.3052,3.1766,3.1652,6.216
9.265000,5.2571,5.2867,0.5919,7.479
9.270000,6.3262,9.1346,-0.9622,11.153
9.276000,8.2812,11.2073,-0.7326,13.954
9.282000,9.5766,11.2750,0.0382,14.793
9.285000,10.1172,10.2121,-0.5146,14.384
9.289000,10.4603,8.4976,-1.1966,13.530
9.295000,10.2352,6.4092,-0.6820,12.096
9.301000,9.4676,4.6074,0.2087,10.531
9.304000,7.6398,2.8271,1.2836,8.247
9.316000,5.4193,1.7596,2.4789,6.214
9.323000,3.3890,1.1061,3.6693,5.116
9.324000,2.2049,0.7066,4.4495,5.016
9.324000,1.5903,0.3654,4.6980,4.973
9.332000,1.3139,0.0582,4.0883,4.295
9.333000,1.7504,-0.1343,3.2845,3.724
9.339000,1.9052,-0.5454,2.5520,3.231
9.343000,2.0474,-0.7243,1.4008,2.584
9.350000,2.4833,-0.3042,0.1227,2.505
9.353000,1.5730,0.1261,-0.1469,1.585
9.358000,-0.6626,0.5752,-0.9186,1.270
9.363000,-1.9358,0.1805,-1.4646,2.434
9.368000,-1.3974,-0.5013,-1.8226,2.351
9.372000,0.0415,-0.7511,-2.0490,2.183
9.378000,1.7879,-0.6955,-1.8355,2.655
9.382000,3.2641,-0.5348,-1.2800,3.547
9.387000,4.0575,-0.5308,-0.6276,4.140
9.392000,4.2707,-0.7901,0.0658,4.344
9.397000,4.1365,-1.3045,0.7656,4.404
9.401000,3.8743,-1.8321,1.2297,4.459
9.407000,3.7535,-2.2912,1.5956,4.678
9.411000,3.7488,-2.5697,1.8404,4.903
9.417000,3.9915,-2.7750,1.8959,5.218
9.421000,4.3377,-2.9215,1.8605,5.551
9.426000,4.5818,-3.0640,1.6223,5.746
9.435000,4.6163,-3.1763,1.3515,5.764
9.436000,4.5942,-3.4520,1.0430,5.840
9.443000,4.5222,-3.5875,0.8475,5.834
9.446000,4.5050,-3.6787,0.5683,5.844
9.451000,4.4731,-3.7017,0.4138,5.821
9.455000,4.4643,-3.6924,0.2716,5.800
9.462000,4.3899,-3.6532,0.0415,5.711
9.466000,4.2088,-3.6294,-0.1949,5.561
9.471000,3.9542,-3.6091,-0.4926,5.376
9.477000,3.7044,-3.6017,-0.7893,5.227
9.483000,3.5760,-3.6170,-1.0875,5.201
9.485000,3.6689,-3.5637,-1.3179,5.282
9.490000,3.9164,-3.3796,-1.5782,5.408
9.495000,4.1780,-3.2101,-1.7798,5.561
9.500000,4.3759,-3.1075,-1.8745,5.685
9.504000,4.5088,-3.0018,-1.9284,5.750
9.510000,4.5073,-2.8762,-1.9231,5.682
9.514000,4.4993,-2.7137,-1.9005,5.587
9.520000,4.5164,-2.5283,-1.8291,5.490
9.526000,4.5162,-2.3199,-1.6986,5.354
9.530000,4.5065,-2.0620,-1.5825,5.202
9.535000,4.4759,-1.7618,-1.6066,5.071
9.550000,4.4801,-1.3642,-1.7201,4.989
9.553000,4.5578,-0.9675,-1.8679,5.020
9.556000,4.6070,-0.5380,-2.0139,5.057
9.559000,4.5708,-0.1048,-2.2705,5.105
9.560000,4.3853,0.2988,-2.4966,5.055
9.564000,4.3091,0.7131,-2.6185,5.092
9.569000,4.2519,1.0833,-2.6673,5.135
9.573000,4.0525,1.4879,-2.8675,5.183
9.578000,3.7337,1.9030,-3.0453,5.180
9.582000,3.2723,2.2065,-3.2626,5.121
9.587000,2.6444,2.4534,-3.5292,5.046
9.592000,1.8922,2.5623,-3.7069,4.887
9.599000,1.1396,2.6052,-3.7649,4.718
9.604000,0.4262,2.6538,-3.6702,4.549
9.608000,-0.1962,2.8227,-3.5138,4.511
9.612000,-0.6732,3.0737,-3.3889,4.624
9.617000,-0.9958,3.3541,-3.3841,4.868
9.623000,-1.1953,3.6137,-3.4900,5.164
9.627000,-1.2978,3.7664,-3.7692,5.484
9.632000,-1.4128,3.8317,-4.0526,5.753
9.637000,-1.5543,3.7950,-4.3244,5.960
9.642000,-1.7817,3.7165,-4.4923,6.097
9.647000,-2.2477,3.6246,-4.4402,6.157
9.651000,-2.8183,3.4527,-4.3382,6.220
9.668000,-3.3551,3.2797,-3.9954,6.163
9.673000,-3.8438,3.1129,-3.5623,6.095
9.673000,-4.3324,2.9522,-3.0790,6.080
9.674000,-4.7061,2.7977,-2.6841,6.097
9.681000,-4.8741,2.4989,-2.4318,5.993
9.682000,-4.9099,2.1441,-2.2524,5.812
9.685000,-4.9921,1.8050,-2.2124,5.751
9.690000,-5.2155,1.4646,-2.1631,5.833
9.696000,-5.6553,1.1010,-1.7908,6.033
9.700000,-6.1952,0.6929,-1.0572,6.323
9.704000,-6.7150,0.3214,-0.2172,6.726
9.710000,-7.1738,0.0457,0.4617,7.189
9.715000,-7.5077,-0.1748,0.9349,7.568
9.720000,-7.5664,-0.3356,1.1912,7.667
9.724000,-7.3515,-0.4539,1.1999,7.463
9.729000,-6.9578,-0.5063,0.9709,7.043
9.734000,-6.4751,-0.5102,0.7643,6.540
9.739000,-6.1148,-0.4565,0.6178,6.163
9.744000,-5.8852,-0.3695,0.5403,5.922
9.749000,-5.7591,-0.2593,0.3828,5.778
9.761000,-5.8003,-0.0615,0.1829,5.803
9.765000,-6.0156,0.0611,-0.0509,6.016
9.767000,-6.1280,0.1543,-0.3677,6.141
9.791000,-6.1834,0.1585,-0.6033,6.215
9.793000,-6.2248,0.2172,-0.8640,6.288
9.794000,-6.1761,0.1992,-1.0095,6.261
9.794000,-6.1091,0.2862,-1.0545,6.206
9.795000,-6.0813,0.3779,-1.0899,6.190
9.795000,-6.0262,0.2953,-0.9081,6.101
9.799000,-6.1252,0.1820,-0.6849,6.166
9.804000,-6.5071,0.1695,-0.6014,6.537
9.808000,-5.4097,1.3221,0.3146,5.578
9.812000,4.8267,10.0336,2.5290,11.418
9.817000,2.9053,10.8260,-0.1332,11.210
9.822000,1.4471,2.2808,3.3641,4.314
9.827000,2.6493,-0.2133,-0.6474,2.736
9.831000,4.0069,1.0785,-3.8920,5.689
9.839000,4.3427,1.7258,-3.9664,6.129
9.842000,5.0213,1.8442,-3.0104,6.138
9.848000,6.1097,2.7340,-2.7405,7.233
9.853000,3.8792,1.6215,-3.0123,5.172
9.856000,1.3798,0.4145,-4.6698,4.887
9.861000,-3.8672,-0.7520,-1.9076,4.377
9.866000,-15.9766,-0.2641,6.5579,17.272
9.879000,-26.4862,-0.8542,14.8140,30.360
9.881000,-29.2643,-2.6130,9.1187,30.763
9.883000,-27.2585,-4.7361,1.8506,27.729
9.886000,-21.9051,-1.2257,1.7963,22.013
9.893000,-12.9373,3.2583,2.2634,13.532
9.909000,-2.9571,2.5990,-1.1615,4.105
9.910000,4.6026,2.4667,-3.9858,6.569
9.911000,8.1481,1.7161,-8.5575,11.940
9.912000,8.6764,-0.3522,-12.6081,15.309
9.914000,8.0165,-1.3204,-13.8479,16.055
9.919000,5.9194,-1.4670,-11.4096,12.937
9.924000,2.2615,-1.3594,-6.0167,6.570
9.929000,-1.3214,-0.9240,-1.1308,1.969
9.935000,-4.0865,-1.2655,3.0067,5.229
9.940000,-5.0716,-1.5728,6.6577,8.516
9.945000,-3.9797,-1.1678,9.2005,10.092
9.949000,-1.2626,-0.4821,9.8818,9.974
9.954000,1.6953,-0.1400,7.9549,8.135
9.959000,3.2709,-0.3561,4.3324,5.440
9.964000,3.0001,-0.8234,1.4218,3.420
9.969000,1.5441,-0.9652,-0.1983,1.832
9.973000,-0.4667,-0.5547,-0.1433,0.739
9.979000,-2.0547,0.2188,-0.0180,2.066
9.986000,-2.5680,0.7549,-0.0023,2.677
9.990000,-2.2912,0.8267,-0.5907,2.506
9.994000,-1.2967,1.1901,-1.7209,2.462
9.999000,-0.4034,1.1660,-2.7511,3.015
10.005000,-0.2789,1.0442,-3.9267,4.073
10.009000,-0.6159,0.6194,-3.9616,4.057
10.012000,-0.8699,0.6112,-3.8785,4.022
10.030000,-0.8738,0.6082,-2.7435,2.943
10.033000,-0.4917,0.6817,-1.4583,1.683
10.034000,0.0040,0.8676,-0.2119,0.893
10.035000,0.2884,0.9171,0.3804,1.034
10.050000,0.4579,0.8063,0.3665,0.997
10.050000,0.3315,0.7983,-0.1910,0.885
10.051000,0.0621,0.6422,-0.9387,1.139
10.051000,-0.1687,0.5341,-1.5384,1.637
10.056000,-0.2729,0.3737,-1.6163,1.681
10.060000,-0.2962,0.1922,-1.3260,1.372
10.066000,-0.2959,0.0109,-0.6700,0.733
10.071000,-0.2412,-0.0864,0.2685,0.371
10.076000,-0.0483,-0.0473,1.0176,1.020
10.080000,0.0319,-0.0156,1.3565,1.357
10.086000,0.0069,-0.0533,1.4032,1.404
10.091000,0.0272,-0.0768,1.1964,1.199
10.095000,0.0882,-0.0836,0.9128,0.921
10.101000,0.2233,-0.1000,0.8174,0.853
10.106000,0.3322,-0.0997,0.8188,0.889
10.110000,0.4247,-0.0422,0.9314,1.025
10.125000,0.4006,0.0152,0.7800,0.877
10.126000,0.2909,0.0581,0.6110,0.679
10.127000,0.2558,0.0292,0.2664,0.371
10.130000,0.1877,-0.0021,-0.1417,0.235
10.147000,0.1894,0.0479,-0.3870,0.434
10.148000,-0.0021,-0.0814,-0.4391,0.447
10.148000,-0.3558,-0.2009,-0.2765,0.493
10.151000,-0.5067,-0.1171,-0.1694,0.547
10.154000,-0.4552,-0.1313,-0.0483,0.476
10.159000,-0.2849,-0.1313,0.0871,0.326
10.163000,-0.1106,-0.0906,0.0959,0.172
10.168000,-0.0298,0.0194,0.0022,0.036
10.174000,-0.1285,0.0790,-0.1796,0.235
10.178000,-0.1794,0.0764,-0.2777,0.339
10.183000,-0.0777,0.0403,-0.5217,0.529
10.188000,0.1194,0.0808,-0.4770,0.498
10.192000,0.2399,0.1166,-0.3922,0.474
10.199000,0.3154,0.1618,-0.2768,0.450
10.206000,0.1261,0.0087,-0.1738,0.215
10.208000,0.0639,0.0087,0.0341,0.073
10.212000,0.0926,0.0589,0.1535,0.189
10.217000,0.1882,0.0970,0.3233,0.387
10.222000,0.2218,0.0825,0.4361,0.496
10.227000,0.2724,0.0250,0.4206,0.502
10.233000,0.2828,-0.0349,0.4010,0.492
10.238000,0.3482,0.0247,0.1957,0.400
10.243000,0.4524,0.1010,0.0630,0.468
10.249000,0.4423,0.1198,0.0142,0.458
10.253000,0.5404,0.1912,-0.0129,0.573
10.258000,0.6249,0.2266,0.0653,0.668
10.263000,0.6911,0.2046,0.3039,0.782
10.267000,0.5408,0.1110,0.3015,0.629
10.272000,0.3603,0.2540,0.2591,0.511
10.278000,0.1782,0.4064,0.0026,0.444
10.296000,0.0992,0.4677,-0.0954,0.488
10.297000,0.1542,0.2518,0.0101,0.295
10.298000,0.2117,0.0600,0.2640,0.344
10.299000,0.4558,0.1505,0.7476,0.888
10.301000,0.7526,0.2886,1.1341,1.391
10.308000,0.8230,0.2353,1.0752,1.374
10.312000,0.7748,0.2202,0.9109,1.216
10.325000,0.7350,0.3366,0.3755,0.891
10.326000,0.6388,0.4744,0.3344,0.863
10.326000,0.5723,0.4662,0.3542,0.819
10.333000,0.6501,0.5489,0.6332,1.061
10.335000,0.8198,0.6649,1.0952,1.521
10.339000,1.0456,0.8215,1.5377,2.033
10.344000,1.2676,1.0089,1.6312,2.299
10.349000,1.3812,0.7302,1.3096,2.039
10.354000,1.2961,0.2918,1.1064,1.729
10.359000,1.2059,0.5448,0.9151,1.609
10.364000,1.8374,1.8876,0.7231,2.732
10.369000,2.7730,2.8417,0.7312,4.037
10.374000,3.6427,3.3483,-0.3022,4.957
10.381000,3.9749,3.1736,-1.0325,5.190
10.384000,4.7339,3.8794,-2.3715,6.564
10.389000,4.9452,4.2433,-3.6908,7.489
10.393000,5.2327,4.8299,-3.7814,8.063
10.399000,5.0356,4.7069,-3.7340,7.839
10.404000,4.6317,4.3558,-3.9112,7.465
10.408000,3.8008,3.8606,-3.7554,6.592
10.421000,3.0349,3.6972,-3.1517,5.728
10.423000,2.7094,3.5902,-1.9754,4.913
10.424000,2.9783,3.8600,-1.0804,4.994
10.439000,3.3062,3.9471,-0.4625,5.170
10.440000,3.5640,3.8662,0.4555,5.278
10.440000,4.0738,3.8206,1.2987,5.734
10.443000,4.9734,4.2072,1.5133,6.688
10.447000,5.8473,4.6314,1.3864,7.587
10.452000,6.7945,5.1555,1.6796,8.693
10.456000,7.7966,5.3759,2.0430,9.688
10.461000,9.2573,5.8786,2.4359,11.233
10.467000,10.5010,6.5540,2.3617,12.602
10.472000,11.4179,7.2235,2.5418,13.748
10.475000,12.1409,7.8543,2.8601,14.740
10.483000,12.3911,8.1626,3.0315,15.145
10.486000,12.5309,8.1970,4.2512,15.566
10.491000,12.6457,7.9557,4.7621,15.681
10.496000,12.5634,7.6495,3.8644,15.208
10.501000,12.6102,7.2034,2.8141,14.793
10.506000,13.1651,6.5616,2.8301,14.979
10.511000,13.7063,5.8112,3.3544,15.261
10.515000,14.0673,4.8539,2.5456,15.097
10.531000,14.4163,4.8638,1.0091,15.248
10.532000,15.0887,5.8226,0.5702,16.183
10.532000,15.0286,6.1078,0.8121,16.243
10.536000,14.4372,5.7492,2.4200,15.727
10.540000,13.4085,4.9681,2.7252,14.557
10.544000,12.1504,3.2546,1.3055,12.646
10.549000,11.2646,1.5902,1.2589,11.446
10.554000,10.9688,0.8925,3.1885,11.458
10.559000,10.9436,1.1093,5.7750,12.423
10.563000,9.5816,1.7548,5.9274,11.403
10.569000,7.4483,1.2665,4.7007,8.898
10.573000,6.5992,0.2717,3.0756,7.286
10.578000,6.6753,-0.3460,1.5423,6.860
10.583000,7.1871,-1.0212,1.1895,7.356
10.588000,7.5439,-2.9763,2.9297,8.623
10.593000,6.9697,-7.6984,3.7312,11.035
10.600000,7.3172,-8.3382,0.7386,11.118
10.603000,0.4583,-7.0524,-0.4041,7.079
10.608000,-4.4618,-4.0570,-2.6047,6.569
10.617000,-6.2996,-1.5671,-6.1784,8.962
10.619000,-8.6068,-0.7326,-5.6904,10.344
10.622000,-10.3198,-0.4360,-3.0712,10.776
10.635000,-11.0578,-1.1386,-0.5368,11.129
10.637000,-11.0620,-2.3017,1.9234,11.461
10.638000,-9.4705,-3.3530,4.5999,11.049
10.647000,-3.6928,-2.7901,6.4485,7.938
10.648000,3.0140,-2.2173,5.0402,6.277
10.656000,7.0977,-2.7237,2.1814,7.909
10.658000,9.9394,-2.5986,0.3764,10.280
10.666000,11.4704,-2.7424,-0.8663,11.825
10.667000,12.1061,-3.0181,-1.6554,12.586
10.671000,12.1556,-3.1609,-1.8597,12.697
10.676000,11.1491,-3.2943,-1.9988,11.796
10.683000,9.2028,-3.2584,-1.7371,9.916
10.686000,7.3964,-3.2669,-1.2896,8.188
10.692000,6.1631,-3.4541,-1.3293,7.189
10.696000,5.4491,-3.6543,-1.8824,6.826
10.702000,5.0127,-3.8472,-2.6422,6.849
10.706000,4.7589,-4.0262,-3.4274,7.114
10.711000,4.6385,-4.2324,-3.9121,7.398
10.716000,4.7436,-4.3839,-3.9109,7.551
10.720000,5.0734,-4.4847,-3.1876,7.484
10.726000,5.5820,-4.5115,-2.0520,7.465
10.731000,6.1486,-4.5856,-0.7289,7.705
10.735000,6.7287,-4.7043,0.4362,8.222
10.739000,7.2570,-4.8719,1.4006,8.852
10.748000,7.7594,-5.0333,1.9923,9.461
10.752000,8.1675,-5.1061,2.2080,9.882
10.754000,8.3466,-5.0580,2.1156,9.986
10.772000,8.3808,-4.8338,1.8975,9.859
10.775000,8.2363,-4.4517,1.5063,9.483
10.777000,7.9707,-4.0074,1.0644,8.985
10.778000,7.7496,-3.4839,0.4932,8.511
10.781000,7.5347,-2.8524,-0.2077,8.059
10.784000,7.3120,-2.2636,-0.9124,7.709
10.789000,7.1439,-1.5736,-1.5477,7.477
10.793000,6.9590,-0.9737,-2.1508,7.349
10.799000,6.3893,-0.8842,-2.7950,7.030
10.804000,6.3348,-0.0810,-3.3719,7.177
10.808000,6.5403,0.8909,-3.5583,7.499
10.812000,6.8039,1.8691,-3.7764,8.003
10.819000,7.1186,2.9857,-3.7448,8.580
10.822000,7.4478,4.2719,-3.4656,9.259
10.827000,7.5689,5.6459,-3.2808,9.996
10.831000,7.3296,7.2367,-2.9458,10.713
10.837000,6.3911,8.9238,-2.1807,11.191
10.843000,4.7963,10.3428,-1.9848,11.572
10.847000,2.9835,11.2662,-2.2915,11.878
10.852000,1.4757,12.0757,-2.5122,12.422
10.873000,-0.1144,12.8870,-3.0099,13.234
10.875000,-1.9513,13.4152,-3.7784,14.073
10.878000,-3.5484,13.8456,-4.8182,15.083
10.880000,-4.9827,14.1608,-5.9354,16.143
10.882000,-6.2572,14.6232,-7.0338,17.392
10.884000,-7.4623,15.0667,-7.9224,18.586
10.888000,-8.9868,15.3520,-8.5057,19.718
10.901000,-10.8487,15.0815,-7.9401,20.204
10.903000,-12.9786,14.2005,-6.2974,20.242
10.904000,-15.2808,12.8909,-3.7883,20.348
10.905000,-17.3854,11.3680,-0.4466,20.777
10.911000,-19.4264,9.7153,2.6551,21.882
10.915000,-21.2064,8.1191,4.7786,23.205
10.920000,-22.6804,6.3279,5.4347,24.166
10.927000,-23.8422,4.5187,4.4243,24.667
10.931000,-24.6462,2.8590,2.2569,24.914
10.936000,-25.3014,1.1885,-0.3468,25.332
10.941000,-25.7252,-0.4087,-2.8899,25.890
10.945000,-25.8688,-1.8561,-4.7350,26.364
10.950000,-25.6971,-3.0246,-5.5601,26.465
10.954000,-24.9168,-3.7260,-5.3201,25.749
10.959000,-22.7748,-3.3043,-3.9656,23.352
10.964000,-20.1561,-2.3075,-2.0539,20.391
10.969000,-16.8911,-0.9530,1.7828,17.012
10.973000,-3.8923,8.0496,6.8293,11.251
10.979000,-1.9859,14.9497,1.5147,15.157
10.983000,-2.9609,10.1541,8.0253,13.277
10.990000,-3.5612,1.0422,10.4864,11.124
10.994000,-0.9831,-2.4174,3.7187,4.543
10.999000,5.0096,3.3546,-5.5214,8.175
11.003000,12.1309,12.9413,-12.5548,21.731
11.008000,13.2899,9.9142,-7.0442,18.015
11.013000,11.2910,2.2951,-3.3747,12.006
11.018000,5.4728,-0.6324,-10.0761,11.484
11.022000,-3.1036,-0.6117,-14.4623,14.804
11.027000,-10.3640,-1.0862,-9.8028,14.307
11.033000,-18.4217,-0.8029,-2.2301,18.574
11.039000,-29.3134,-0.2711,6.1517,29.953
11.043000,-36.3909,1.5109,10.5919,37.931
11.048000,-37.3077,-0.7896,3.6110,37.490
11.053000,-30.5502,-2.4670,-1.9979,30.715
11.058000,-18.7474,0.8700,-2.2518,18.902
11.063000,-5.2203,1.3958,-3.8878,6.657
11.067000,5.9392,1.1044,-2.7120,6.622
11.073000,11.5178,0.0154,-3.0660,11.919
11.078000,11.9002,-1.8156,-2.7293,12.343
11.083000,7.9529,-1.5869,-1.8299,8.314
11.098000,0.1471,-0.3597,-0.4473,0.593
11.100000,-6.2812,-0.2093,1.0787,6.377
11.102000,-8.0892,0.1801,0.7162,8.123
11.104000,-5.9330,0.9754,0.1311,6.014
11.110000,-1.8956,1.5237,-0.6359,2.514
11.127000,1.5221,1.6005,-1.7295,2.805
11.128000,3.1217,1.4073,-2.1883,4.064
11.129000,2.4993,1.0974,-2.0475,3.412
11.129000,0.7199,0.7664,-0.7771,1.307
11.132000,-0.6881,0.5841,0.1943,0.923
11.135000,-1.2613,0.4475,0.6397,1.483
11.140000,-1.1523,0.2273,0.3331,1.221
11.145000,-0.5721,0.1555,-0.1589,0.614
11.149000,0.0064,0.2464,-0.5405,0.594
11.154000,0.3285,0.4710,-0.6501,0.867
11.159000,0.1989,0.6405,-0.6242,0.916
11.164000,-0.1357,0.6687,-0.7949,1.048
11.170000,-0.2528,0.5608,-0.9687,1.148
11.174000,-0.1048,0.4245,-0.8807,0.983
11.179000,0.2436,0.2837,-0.4714,0.602
11.183000,0.5894,0.2291,0.2305,0.673
11.189000,0.6751,0.1052,1.0395,1.244
11.194000,0.5347,0.0221,1.6319,1.717
11.200000,0.3284,-0.0517,1.8152,1.845
11.205000,0.2063,-0.0681,1.6285,1.643
11.208000,0.1323,-0.0681,1.1411,1.151
11.213000,-0.0035,-0.1208,0.5607,0.574
11.218000,-0.0867,-0.0969,0.0392,0.136
11.223000,-0.1702,-0.2237,-0.2238,0.359
11.227000,-0.1296,-0.1327,-0.2215,0.289
11.232000,-0.0630,-0.1351,-0.0618,0.161
11.239000,-0.0135,-0.1542,0.0546,0.164
11.242000,0.0526,-0.1733,0.2092,0.277
11.247000,0.0374,-0.2497,0.3714,0.449
11.256000,0.1442,-0.1851,0.5028,0.555
11.257000,0.1673,-0.1468,0.5273,0.572
11.262000,0.0565,-0.1040,0.4164,0.433
11.266000,0.0916,-0.0588,0.1559,0.190
11.271000,0.1889,-0.0352,-0.0584,0.201
11.277000,0.2648,-0.0260,-0.2200,0.345
11.281000,0.1857,-0.0765,-0.1594,0.256
11.287000,-0.0007,-0.1054,-0.0154,0.107
11.291000,-0.0005,-0.0626,0.1930,0.203
11.295000,0.0377,-0.0772,0.2964,0.309
11.301000,0.1309,-0.1205,0.2545,0.311
11.307000,0.2335,-0.0825,0.4112,0.480
11.311000,0.3387,-0.0780,0.5111,0.618
11.315000,0.2792,-0.0330,0.5258,0.596
11.321000,0.1007,0.0669,0.3071,0.330
11.326000,-0.0488,0.0686,0.0249,0.088
11.331000,-0.1219,0.0035,-0.3164,0.339
11.336000,-0.0660,-0.0066,-0.4546,0.459
11.341000,0.0133,-0.0214,-0.4452,0.446
11.345000,0.1068,0.0571,-0.2597,0.287
11.351000,0.0950,0.1642,-0.0340,0.193
11.356000,0.0787,0.1446,0.1269,0.208
11.362000,0.1032,-0.0018,0.3025,0.320
11.365000,0.2185,0.0528,0.3541,0.419
11.370000,0.3433,0.1766,0.2773,0.475
11.376000,0.3536,0.2381,0.2203,0.480
11.380000,0.2808,0.2780,0.1641,0.428
11.405000,0.0936,0.2820,0.0105,0.297
11.411000,0.0953,0.3385,-0.0444,0.354
11.411000,0.2812,0.3066,-0.0607,0.420
11.412000,0.3762,0.2963,0.0236,0.479
11.413000,0.3640,0.3265,0.2015,0.529
11.413000,0.2998,0.4859,0.2364,0.618
11.438000,0.5990,0.9246,0.1928,1.118
11.439000,0.8967,1.1454,-0.2060,1.469
11.439000,0.7652,0.5987,-0.2784,1.011
11.439000,0.5611,0.0552,0.0708,0.568
11.440000,0.4489,0.0908,-0.1681,0.488
11.440000,0.4067,0.4012,-0.1176,0.583
11.442000,0.2464,0.6683,-0.0665,0.715
11.446000,0.1584,0.6054,-0.2015,0.657
11.451000,0.1785,0.8413,-0.2454,0.894
11.456000,0.6531,1.1798,-0.3206,1.386
11.461000,1.8524,2.3042,-0.0855,2.958
11.467000,3.0795,2.9686,0.0006,4.277
11.472000,4.0426,2.5045,0.6948,4.806
11.477000,4.5208,2.4643,0.7600,5.205
11.481000,4.7910,3.4333,-0.1810,5.897
11.486000,4.9080,3.8998,-1.1839,6.380
11.491000,4.6119,3.2337,-1.8452,5.927
11.495000,4.0974,2.6721,-2.7036,5.589
11.506000,3.4873,2.4348,-3.3099,5.389
11.507000,2.7777,2.3685,-3.3780,4.974
11.510000,2.4179,2.5662,-2.7724,4.485
11.523000,2.1739,2.7432,-2.2699,4.172
11.524000,2.3843,3.1241,-2.1318,4.471
11.525000,2.5400,3.1471,-2.0301,4.525
11.529000,2.7489,3.1212,-1.7491,4.512
11.536000,3.0490,2.9485,-1.3601,4.454
11.539000,3.6336,3.1239,-1.3672,4.983
11.545000,4.1763,3.5326,-1.3127,5.625
11.549000,4.5021,3.7417,-1.3238,6.002
11.554000,4.7376,3.6468,-0.9952,6.061
11.559000,4.7993,3.5472,-0.3635,5.979
11.566000,4.9424,3.5792,0.3806,6.114
11.570000,5.2057,3.7424,1.4791,6.580
11.574000,5.8222,4.1924,2.1570,7.492
11.579000,6.5762,4.7640,2.1152,8.391
11.584000,7.3036,5.2280,2.0065,9.203
11.589000,7.9500,5.6090,1.7419,9.884
11.594000,8.8694,5.9934,2.2019,10.929
11.598000,9.8229,6.0328,2.5733,11.811
11.603000,10.8564,6.5215,3.2698,13.080
11.608000,11.9450,7.2304,3.8170,14.475
11.621000,13.0870,7.9235,3.6685,15.732
11.622000,13.3996,7.6738,3.0643,15.743
11.623000,14.1935,7.2771,2.9676,16.224
11.638000,15.3499,7.7553,2.2686,17.347
11.640000,16.3297,8.2478,1.8690,18.390
11.642000,16.7403,7.9154,1.4315,18.573
11.643000,16.8564,7.4644,-0.0268,18.435
11.648000,16.8109,7.4171,-1.6630,18.450
11.651000,16.8817,7.7109,-2.8708,18.780
11.657000,16.4976,7.7722,-3.8754,18.644
11.662000,15.4218,6.6299,-2.8064,17.019
11.667000,12.8255,4.3802,-0.0565,13.553
11.671000,9.6924,2.6898,0.9034,10.099
11.676000,8.5353,2.0389,2.3792,9.092
11.681000,8.3118,2.0065,4.1648,9.511
11.686000,6.7723,2.0188,4.5920,8.428
11.691000,4.3162,1.9247,5.0817,6.940
11.696000,3.5480,1.5792,4.1456,5.680
11.701000,3.5990,1.1367,1.1314,3.940
11.706000,3.9008,0.7103,-0.0083,3.965
11.711000,4.7322,-0.0601,1.5445,4.978
11.715000,6.3978,-2.1976,3.5509,7.640
11.721000,10.4325,-4.2751,3.7699,11.888
11.725000,12.7667,-3.1257,2.9325,13.467
11.730000,4.8206,-3.1930,1.5933,5.998
11.736000,-0.4677,-2.0178,-1.7055,2.683
11.739000,-1.6725,-0.6220,-4.5657,4.902
11.750000,-3.2349,-0.6274,-4.4510,5.538
11.756000,-4.4541,-0.8509,-3.8115,5.924
11.756000,-5.3297,-1.1138,-3.0979,6.264
11.759000,-5.8314,-1.3305,-1.5216,6.172
11.764000,-5.6843,-1.5155,0.5118,5.905
11.769000,-4.9250,-1.9664,2.3836,5.814
11.773000,-3.0110,-2.5262,3.8853,5.527
11.778000,1.1584,-2.7503,4.6320,5.510
11.783000,4.4713,-3.6038,3.6517,6.805
11.788000,6.7032,-4.1265,2.7946,8.353
11.793000,7.8539,-4.5583,2.2024,9.344
11.798000,8.2029,-4.8907,2.0236,9.762
11.803000,7.9826,-5.0682,2.2513,9.720
11.808000,7.4368,-5.0650,2.7547,9.410
11.813000,6.8807,-4.9460,3.2055,9.060
11.817000,6.4376,-4.8476,3.3436,8.725
11.822000,6.0824,-4.8134,2.9602,8.302
11.827000,5.8294,-4.8140,2.2217,7.880
11.832000,5.5779,-4.8750,1.3818,7.536
11.837000,5.3592,-4.8666,0.6416,7.268
11.842000,5.3443,-4.7652,-0.0374,7.160
11.847000,5.5083,-4.5492,-0.6079,7.170
11.851000,5.7415,-4.3131,-0.9576,7.245
11.856000,5.9309,-4.0372,-1.2946,7.290
11.861000,5.9038,-3.7909,-1.7367,7.228
11.866000,5.7874,-3.6708,-2.3219,7.236
11.871000,5.7702,-3.6454,-2.7866,7.372
11.883000,5.9758,-3.6241,-2.9515,7.587
11.884000,6.3266,-3.5899,-2.7464,7.775
11.894000,6.5959,-3.5333,-2.1546,7.787
11.894000,6.7388,-3.4403,-1.2359,7.666
11.899000,6.7794,-3.2156,-0.0770,7.504
11.901000,6.6973,-2.9107,1.0305,7.375
11.907000,6.5390,-2.5321,2.0461,7.305
11.910000,6.2770,-2.1127,2.7166,7.158
11.916000,5.9791,-1.6833,2.9557,6.879
11.920000,5.6537,-1.2198,2.9109,6.475
11.925000,5.2702,-0.6650,2.6212,5.923
11.930000,4.8244,-0.0910,2.1606,5.287
11.934000,4.3236,0.4541,1.6015,4.633
11.940000,3.7943,1.5747,1.2116,4.283
11.944000,3.2635,1.8981,-0.0161,3.775
11.950000,3.2701,2.4120,-0.3732,4.081
11.954000,3.9188,2.1004,-1.8901,4.831
11.960000,4.2995,3.0242,-2.2583,5.721
11.964000,3.9940,4.4506,-2.8993,6.646
11.969000,3.9120,6.0535,-3.1719,7.875
11.974000,3.6264,7.6389,-3.7028,9.231
11.979000,3.1703,9.1990,-4.2383,10.613
11.984000,2.1973,10.4128,-4.6443,11.611
11.989000,1.2205,11.2131,-4.5939,12.179
12.001000,-0.0051,12.0128,-4.7570,12.920
12.002000,-1.3190,12.7490,-4.4763,13.576
12.006000,-2.4369,13.4401,-4.5526,14.398
12.010000,-3.7274,14.0879,-4.8411,15.356
12.017000,-4.9852,14.6392,-4.6371,16.145
12.018000,-6.3617,14.9762,-4.1196,16.785
12.024000,-7.9818,14.6969,-3.0123,16.994
12.029000,-9.9129,13.7726,-1.2334,17.014
12.033000,-12.0500,12.6838,1.1327,17.532
12.037000,-14.3138,11.4445,4.3810,18.843
12.043000,-16.1892,10.0715,7.6682,20.551
12.047000,-17.6834,8.5141,9.5491,21.826
12.052000,-18.8841,7.0274,9.6525,22.342
12.057000,-19.6238,5.6091,8.2626,22.019
12.062000,-19.9547,4.4138,5.3189,21.118
12.067000,-20.1042,3.3165,1.7953,20.455
12.072000,-19.7085,2.4074,-1.2028,19.891
12.076000,-19.5930,1.4842,-3.9288,20.038
12.081000,-19.7710,0.6135,-5.3770,20.498
12.086000,-20.2638,-0.1667,-5.8335,21.087
12.099000,-20.9880,-0.8586,-5.3048,21.665
12.100000,-21.7036,-1.3209,-4.1984,22.145
12.101000,-22.5443,-1.6269,-2.7807,22.773
12.106000,-23.2341,-1.8159,-0.8819,23.322
12.128000,-23.5097,-1.9090,0.8518,23.602
12.130000,-23.3580,-1.7375,2.2349,23.529
12.130000,-22.6026,-1.4037,3.5430,22.922
12.130000,-19.5098,0.2612,4.7186,20.074
12.131000,0.6903,15.6150,4.1198,16.164
12.135000,11.1102,30.0672,0.8725,32.066
12.140000,7.8677,16.5180,4.1774,18.767
12.145000,7.5208,0.5914,-8.4154,11.302
12.149000,12.4280,-0.6141,-10.5959,16.343
12.154000,17.2559,-0.3540,-9.4865,19.695
12.159000,23.8361,2.5219,-20.2363,31.369
12.164000,24.9377,1.8730,-21.3624,32.890
12.171000,18.7349,-0.3574,-15.3137,24.200
12.174000,7.1002,0.7236,-14.1400,15.839
12.179000,-4.5117,1.0309,-9.2499,10.343
12.184000,-14.8823,-2.9387,4.7824,15.906
12.189000,-26.0724,-8.0962,15.3278,31.309
12.195000,-39.8160,-8.2206,32.8783,52.286
12.198000,-39.5561,0.8599,30.5137,49.965
12.204000,-39.3575,2.2677,13.6813,41.729
12.210000,-39.2338,-3.3088,18.4944,43.500
12.213000,-25.0270,-5.3979,11.0752,27.895
12.218000,-1.7493,3.5917,-0.1676,3.999
12.226000,11.6373,4.6508,-10.4212,16.299
12.234000,14.4478,-0.1662,-15.9618,21.530
12.235000,11.8610,-2.1096,-18.2337,21.854
12.237000,5.9236,-1.0352,-18.0666,19.041
12.242000,-1.1137,-0.1494,-12.4754,12.526
12.247000,-5.6462,0.0409,-4.7368,7.370
12.253000,-6.2956,0.3272,2.8156,6.904
12.257000,-3.5437,0.6106,8.5672,9.291
12.263000,0.1235,0.7423,9.5358,9.565
12.267000,2.0778,0.7391,6.3160,6.690
12.272000,1.8458,0.4770,2.1838,2.899
12.277000,0.9736,0.5378,-1.0966,1.562
12.281000,0.2357,0.7085,-2.9673,3.060
12.286000,-0.3246,0.8579,-3.7675,3.878
12.291000,-0.6502,0.8616,-3.5999,3.758
12.296000,-0.5657,0.7008,-3.0294,3.160
12.301000,-0.2525,0.3922,-1.9935,2.047
12.306000,-0.2197,0.1392,-0.5769,0.633
12.311000,-0.4360,0.0945,0.4286,0.619
12.316000,-0.5094,0.2171,1.0207,1.161
12.322000,-0.2778,0.3107,1.2170,1.286
12.328000,0.2421,0.3396,1.1880,1.259
12.330000,0.6849,0.3373,0.9051,1.184
12.335000,0.6548,0.3611,0.5286,0.916
12.340000,0.1691,0.2965,0.0342,0.343
12.345000,-0.2347,0.2057,-0.2610,0.407
12.350000,-0.3229,0.1580,-0.3268,0.486
12.359000,-0.1585,0.0722,-0.0274,0.176
12.360000,0.0460,0.0270,0.3171,0.322
12.365000,0.1043,-0.0754,0.6498,0.662
12.377000,0.0573,-0.1133,0.8661,0.875
12.378000,-0.0326,-0.1464,0.8304,0.844
12.380000,-0.1224,-0.2441,0.7316,0.781
12.385000,-0.0954,-0.2390,0.5002,0.563
12.389000,-0.0303,-0.2029,0.3225,0.382
12.394000,0.0321,-0.1980,0.2507,0.321
12.399000,0.0180,-0.1620,0.2536,0.301
12.403000,0.0014,-0.1500,0.1635,0.222
12.408000,0.0468,-0.0663,0.0977,0.127
12.413000,0.0848,-0.0281,0.0276,0.094
12.418000,0.0775,-0.0713,-0.0040,0.105
12.423000,0.0270,-0.1049,-0.0737,0.131
12.428000,0.0696,-0.0284,-0.0264,0.080
12.434000,0.0954,0.0360,-0.0318,0.107
12.446000,0.1166,0.0620,-0.1229,0.180
12.449000,0.0516,0.0235,-0.2569,0.263
12.450000,-0.0133,0.0401,-0.4841,0.486
12.476000,-0.0327,0.0734,-0.6446,0.650
12.477000,-0.0549,0.0828,-0.7223,0.729
12.478000,-0.0032,-0.0010,-0.5762,0.576
12.478000,0.0317,-0.1348,-0.2735,0.307
12.479000,0.1333,-0.1107,0.0525,0.181
12.479000,0.2230,-0.1415,0.3901,0.471
12.483000,0.2410,-0.0553,0.5054,0.563
12.487000,0.1972,-0.0051,0.3782,0.427
12.492000,0.1320,-0.0170,0.1345,0.189
12.497000,0.1556,0.0546,-0.0701,0.179
12.501000,0.2199,0.1931,-0.1694,0.338
12.507000,0.1912,0.1808,-0.1323,0.295
12.512000,0.1626,0.1566,-0.0858,0.242
12.517000,0.1580,0.0943,0.0707,0.197
12.521000,0.2300,0.1347,0.1196,0.292
12.526000,0.3330,0.2540,0.1666,0.451
12.531000,0.3073,0.2559,0.1591,0.430
12.538000,0.3082,0.2603,0.0280,0.404
12.540000,0.1971,0.2646,-0.1526,0.364
12.545000,0.0648,0.1853,-0.3016,0.360
12.550000,0.0259,0.1037,-0.3623,0.378
12.561000,0.0706,0.2278,-0.2797,0.368
12.563000,0.0291,0.2752,-0.1687,0.324
12.564000,0.0712,0.2748,-0.0623,0.291
12.573000,0.0463,0.2695,0.0706,0.282
12.574000,0.1480,0.2500,0.3185,0.431
12.579000,0.2928,0.2208,0.1368,0.391
12.586000,0.3949,0.2538,0.2000,0.510
12.590000,0.5095,0.2868,0.1756,0.610
12.595000,0.5386,0.3389,-0.0534,0.639
12.599000,0.5232,0.4171,-0.1477,0.685
12.604000,0.7621,0.7248,-0.3083,1.096
12.609000,1.0572,1.2042,-0.5094,1.681
12.613000,1.6382,1.8146,-0.4908,2.494
12.618000,2.1803,1.8007,-0.4422,2.862
12.624000,2.5792,1.5122,-0.6256,3.055
12.628000,2.7956,1.8289,-0.6225,3.398
12.633000,2.7775,2.4825,-1.2515,3.930
12.638000,3.0103,3.1764,-1.7791,4.724
12.643000,3.1906,3.4756,-2.2325,5.220
12.647000,3.1103,2.8191,-2.4620,4.866
12.654000,3.0774,2.0517,-2.2762,4.343
12.657000,2.8345,1.8045,-2.1407,3.984
12.662000,2.3984,1.9120,-1.5839,3.452
12.672000,2.1098,2.0583,-0.9091,3.085
12.673000,1.9326,2.3150,-0.3502,3.036
12.681000,1.9521,2.2446,0.6627,3.048
12.682000,2.1362,2.0077,1.1241,3.140
12.691000,2.5778,1.9174,1.5851,3.582
12.693000,2.8738,1.9809,1.5492,3.819
12.697000,3.2779,2.1886,1.1240,4.098
12.702000,3.6229,2.5452,0.6513,4.475
12.706000,4.0123,2.8690,0.1163,4.934
12.712000,4.3007,3.0695,0.0896,5.284
12.716000,4.4482,3.0253,0.7184,5.427
12.721000,4.5553,2.9207,1.4027,5.590
12.725000,4.8104,3.0546,1.6629,5.936
12.730000,5.2105,3.4626,1.2254,6.375
12.736000,5.5422,4.0709,0.3180,6.884
12.743000,5.8816,4.5184,-0.4431,7.430
12.745000,6.2951,4.7984,-0.4402,7.928
12.753000,7.0215,5.0236,0.4309,8.644
12.755000,8.0773,5.2755,0.9585,9.695
12.760000,9.3675,5.9442,1.0627,11.145
12.765000,10.3531,6.8720,0.7198,12.447
12.770000,11.3888,7.7391,1.0669,13.811
12.774000,12.0451,8.0777,1.6563,14.597
12.779000,12.5413,8.0512,2.0602,15.045
12.784000,13.1749,7.6841,2.7698,15.501
12.789000,13.8686,7.7392,2.4151,16.064
12.794000,14.2875,7.9549,0.8470,16.375
12.803000,14.2469,7.7743,-0.2314,16.232
12.804000,14.2112,7.6487,-0.2990,16.142
12.808000,13.7610,6.9790,-0.2514,15.432
12.813000,13.1647,5.8366,-0.4015,14.406
12.818000,12.9192,5.2799,-1.1513,14.004
12.823000,13.2548,6.2119,-2.3539,14.826
12.830000,13.3964,6.8625,-2.2534,15.220
12.836000,12.2097,5.6794,-1.5629,13.556
12.838000,10.3064,4.5182,0.1990,11.255
12.844000,9.3471,3.6680,1.7879,10.199
12.848000,8.9381,3.0216,3.3248,10.004
12.853000,7.9225,2.7308,4.6973,9.607
12.858000,4.5908,2.7755,5.3274,7.560
12.863000,2.8857,2.9061,4.7305,6.257
12.867000,2.2268,2.5052,2.5998,4.242
12.872000,2.2884,1.6413,0.7539,2.915
12.877000,3.1564,0.5516,0.3894,3.228
12.881000,4.7262,-1.6253,1.8464,5.328
12.887000,6.0037,-6.3289,3.3195,9.334
12.892000,9.0053,-5.0685,2.7014,10.681
12.896000,1.7624,-4.8463,1.9340,5.507
12.903000,-1.5682,-3.1837,-0.3066,3.562
12.932000,-2.4453,-2.0813,-2.9161,4.338
12.933000,-2.8521,-1.3977,-2.6178,4.116
12.933000,-2.9119,-0.8379,-1.1127,3.228
12.933000,-2.2986,-0.3472,0.7353,2.438
12.934000,-1.0646,-0.1726,2.5652,2.783
12.934000,0.8756,-0.5213,4.2703,4.390
12.935000,4.6285,-1.0827,4.9623,6.872
12.940000,8.1087,-1.9972,4.0450,9.279
12.945000,10.0171,-2.9133,2.5426,10.738
12.950000,10.6984,-3.6438,1.4605,11.396
12.954000,10.3185,-4.2332,0.7040,11.175
12.959000,9.3691,-4.6436,0.5002,10.469
12.964000,8.1614,-4.8685,0.8177,9.538
12.969000,7.2183,-5.0285,1.1843,8.876
12.974000,6.6288,-5.0196,1.4313,8.437
12.979000,6.1293,-4.8971,1.4217,7.973
12.984000,5.4703,-4.7213,1.1967,7.324
12.989000,4.5271,-4.6864,0.8327,6.569
12.993000,3.5382,-4.7898,0.4666,5.973
12.998000,2.8777,-4.9912,0.2083,5.765
13.003000,2.7370,-5.1455,0.2034,5.832
13.008000,3.1407,-5.0971,0.3802,5.999
13.018000,3.9085,-4.8951,0.5600,6.289
13.019000,4.8709,-4.6978,0.6216,6.796
13.023000,5.8109,-4.5203,0.6893,7.394
13.028000,6.5481,-4.3198,0.6439,7.871
13.033000,7.0862,-4.1853,0.4858,8.244
13.037000,7.4120,-4.0464,0.3608,8.452
13.043000,7.5359,-3.9231,0.2742,8.500
13.047000,7.3968,-3.7309,0.5971,8.306
13.053000,6.7220,-3.3806,0.7170,7.558
13.058000,5.4864,-3.6075,-0.5350,6.588
13.063000,5.6568,-3.6278,-1.1317,6.815
13.067000,6.8580,-3.0521,-0.9489,7.566
13.072000,7.6847,-2.2662,-0.7540,8.047
13.077000,7.7901,-1.3889,-0.4578,7.926
13.082000,7.4513,-0.5630,-0.1717,7.475
13.087000,6.8483,0.1352,0.1507,6.851
13.092000,6.0744,0.6484,0.3692,6.120
13.097000,5.2374,1.0320,0.3411,5.349
13.101000,4.6048,1.4461,0.0907,4.827
13.106000,4.2966,1.8955,-0.1785,4.700
13.111000,4.2248,2.3899,-0.1747,4.857
13.117000,4.1438,2.9772,-0.1790,5.106
13.121000,3.9603,3.6545,-0.5853,5.421
13.126000,4.0311,4.8064,-0.9690,6.347
13.135000,3.8033,5.7915,-1.4056,7.070
13.138000,3.5130,7.1280,-1.7866,8.145
13.141000,2.9871,8.4563,-2.3147,9.262
13.157000,2.0430,9.3525,-3.0866,10.058
13.159000,0.7777,9.9407,-3.7740,10.661
13.159000,-0.6460,10.3924,-4.2215,11.236
13.176000,-2.0611,10.9412,-4.6980,12.084
13.177000,-3.3926,11.5794,-5.3195,13.187
13.178000,-4.3814,12.2899,-5.7285,14.250
13.179000,-4.8610,13.1486,-6.2184,15.336
13.180000,-4.8761,13.9633,-6.5673,16.183
13.185000,-5.3367,14.6297,-7.2247,17.167
13.190000,-6.1333,14.9563,-7.9085,17.996
13.195000,-7.7146,14.6337,-7.9993,18.375
13.201000,-10.0005,13.3538,-6.5272,17.915
13.204000,-12.2651,11.7652,-3.9708,17.453
13.210000,-14.4118,10.2295,-0.6997,17.687
13.214000,-16.8031,8.9310,4.5498,19.565
13.219000,-19.3490,7.5806,9.0476,22.665
13.224000,-21.3056,6.0669,11.7004,25.053
13.229000,-22.6633,4.4380,11.4213,25.764
13.234000,-22.9145,2.9069,9.0047,24.791
13.239000,-21.9975,1.5562,5.8099,22.805
13.245000,-20.3933,0.5537,2.8078,20.593
13.250000,-18.5930,-0.0124,0.7504,18.608
13.254000,-17.3898,-0.1491,-0.6354,17.402
13.259000,-17.0553,0.1583,-1.3789,17.112
13.264000,-17.4596,0.6915,-1.4349,17.532
13.270000,-17.9957,1.1185,-1.3731,18.083
13.274000,-18.3975,1.3039,-1.4769,18.503
13.286000,-18.6812,1.2466,-1.6711,18.797
13.291000,-18.7963,1.1583,-1.7017,18.909
13.295000,-16.7156,2.5287,-0.0793,16.906
13.298000,0.0092,16.4085,1.3928,16.467
13.298000,5.9119,26.8511,-2.0933,27.574
13.317000,-0.3566,14.3285,4.4896,15.020
13.318000,-5.1348,-2.5124,2.0724,6.081
13.320000,-1.1225,-5.7066,-6.7269,8.892
13.320000,8.1522,3.1140,-8.9474,12.498
13.321000,15.4654,6.7843,-13.2115,21.442
13.326000,18.7389,2.7614,-12.5223,22.706
13.334000,17.0072,-2.5997,-6.7033,18.464
13.336000,11.9258,-0.2248,-6.6501,13.656
13.341000,0.8402,2.7909,-7.9135,8.433
13.346000,-9.2882,1.4996,-0.7290,9.437
13.351000,-16.0290,-0.4318,5.8139,17.056
13.357000,-21.5571,-2.7352,8.1856,23.221
13.361000,-30.5910,-4.8495,11.8758,33.172
13.366000,-35.3289,-0.8118,21.7715,41.507
13.371000,-34.8938,0.2320,12.6453,37.115
13.377000,-29.8175,-0.6921,8.3036,30.960
13.382000,-18.8134,-0.9773,7.0254,20.106
13.385000,-2.3662,0.8710,0.0926,2.523
13.389000,10.3848,2.1870,-4.9140,11.695
13.397000,13.8409,0.3276,-8.1263,16.054
13.399000,9.9696,-1.1618,-12.3251,15.895
13.405000,2.0386,-0.9501,-13.0428,13.235
13.424000,-5.5562,-1.3570,-9.8782,11.415
13.430000,-8.6786,-0.3572,-5.3354,10.194
13.431000,-7.8501,0.5203,0.0248,7.867
13.432000,-4.9004,0.4913,5.1245,7.107
13.433000,-1.2164,0.3907,7.0371,7.152
13.440000,1.6576,0.4954,6.1348,6.374
13.441000,2.6255,0.4347,3.6547,4.521
13.448000,1.9685,0.4789,0.8798,2.209
13.449000,0.5407,0.7095,-1.6803,1.902
13.454000,-0.7796,0.8873,-3.4848,3.680
13.459000,-1.5692,0.9719,-4.4802,4.845
13.463000,-1.5313,1.0184,-4.7502,5.094
13.469000,-0.7359,0.9527,-3.9989,4.176
13.473000,0.1217,0.8731,-2.6305,2.774
13.478000,0.4812,0.6502,-0.9566,1.253
13.484000,0.4394,0.5902,0.3606,0.819
13.487000,0.0851,0.3534,1.3280,1.377
13.493000,-0.0182,0.3918,1.7301,1.774
13.497000,0.1506,0.3774,1.5708,1.622
13.502000,0.2737,0.3558,1.0606,1.152
13.515000,0.2795,0.3796,0.2805,0.549
13.517000,0.1397,0.3244,-0.2496,0.433
13.517000,0.1510,0.3052,-0.3395,0.481
13.553000,0.2125,0.1570,-0.0042,0.264
13.554000,0.1114,0.0066,0.6367,0.646
13.554000,0.0320,-0.0911,1.1226,1.127
13.555000,-0.0164,-0.2580,1.3253,1.350
13.556000,-0.0628,-0.2599,1.1666,1.197
13.558000,-0.0663,-0.2858,0.8186,0.870
13.558000,-0.1562,-0.4049,0.4963,0.659
13.560000,-0.1436,-0.3853,0.3543,0.543
13.562000,-0.0571,-0.3944,0.4711,0.617
13.566000,0.0099,-0.4561,0.7627,0.889
13.574000,0.1221,-0.4293,1.0073,1.102
13.577000,0.2220,-0.3811,1.0737,1.161
13.580000,0.2669,-0.3235,0.9335,1.023
13.585000,0.2044,-0.1991,0.5963,0.661
13.589000,0.0943,-0.0653,0.1648,0.201
13.594000,0.0010,-0.0034,-0.2850,0.285
13.599000,-0.0636,0.0608,-0.6579,0.664
13.605000,-0.0853,0.1107,-0.7731,0.786
13.611000,-0.0332,0.1366,-0.8461,0.858
13.615000,-0.0270,0.0980,-0.8077,0.814
13.620000,-0.0568,0.0094,-0.6581,0.661
13.624000,-0.1011,-0.0648,-0.3349,0.356
13.629000,-0.1171,-0.1628,0.0519,0.207
13.634000,-0.0785,-0.2152,0.3357,0.406
13.641000,-0.0188,-0.2246,0.4476,0.501
13.643000,0.0238,-0.1862,0.3641,0.410
13.648000,0.0471,-0.1694,0.1641,0.240
13.653000,0.0704,-0.1550,-0.0474,0.177
13.658000,0.1057,-0.1525,-0.0554,0.194
13.663000,0.1622,-0.1429,0.0033,0.216
13.668000,0.2739,-0.0712,0.2101,0.352
13.672000,0.3402,-0.0641,0.3453,0.489
13.678000,0.3613,-0.0475,0.4498,0.579
13.682000,0.3326,-0.0476,0.4880,0.592
13.687000,0.3329,0.0096,0.4481,0.558
13.693000,0.2883,0.0141,0.2776,0.400
13.698000,0.3276,0.1023,0.2056,0.400
13.702000,0.3171,0.0972,0.0935,0.345
13.708000,0.3069,0.0585,0.0250,0.313
13.713000,0.2467,0.1132,-0.2175,0.348
13.717000,0.2325,0.2084,-0.3546,0.472
13.723000,0.1781,0.2294,-0.4463,0.532
13.728000,0.3342,0.3580,-0.5120,0.708
13.733000,0.3234,0.2689,-0.4466,0.614
13.746000,0.4607,0.3497,-0.1688,0.603
13.749000,0.5771,0.4160,0.0656,0.714
13.750000,0.6963,0.5516,0.2598,0.926
13.776000,0.7233,0.4982,0.2706,0.919
13.777000,0.6054,0.3755,0.2779,0.765
13.777000,0.5033,0.3654,0.1984,0.653
13.777000,0.3990,0.3791,0.1673,0.575
13.778000,0.4795,0.4239,0.3091,0.711
13.778000,0.4148,0.3516,0.4398,0.699
13.780000,0.6133,0.4275,0.6458,0.988
13.785000,0.8053,0.5010,0.5663,1.105
13.790000,0.9240,0.5625,0.7035,1.290
13.795000,1.1490,0.6646,0.6008,1.457
13.799000,1.1700,0.5564,0.9369,1.599
13.804000,1.2571,0.6204,1.1352,1.804
13.809000,1.3960,0.6917,1.1800,1.954
13.814000,1.3767,0.6483,1.2492,1.969
13.819000,1.2994,0.7175,0.9508,1.763
13.824000,1.6757,1.5898,0.5229,2.368
13.829000,2.6687,3.2690,-0.1718,4.223
13.834000,3.9250,3.8711,-0.6966,5.557
13.841000,5.2575,4.2841,-1.3433,6.914
13.843000,5.9762,4.6590,-2.5240,7.987
13.848000,6.4027,4.6637,-2.5994,8.337
13.853000,6.3417,4.3420,-2.3530,8.038
13.858000,6.1592,4.2321,-2.1388,7.773
13.864000,5.7453,4.2503,-1.3647,7.276
13.868000,5.1715,4.4900,-1.3080,6.972
13.876000,4.5995,4.7358,-1.7638,6.833
13.878000,4.1886,4.7132,-1.9182,6.591
13.882000,4.4955,4.8192,-1.3834,6.734
13.890000,5.3701,4.9747,-0.5690,7.342
13.892000,6.2775,5.1323,0.5354,8.126
13.898000,6.9740,5.3686,1.5351,8.934
13.911000,7.5531,5.5434,1.6798,9.518
13.913000,7.9288,5.9007,0.7167,9.909
13.913000,8.2509,6.2971,-0.3879,10.387
13.917000,8.9364,6.8326,-0.1573,11.250
13.921000,10.0226,7.6317,1.1991,12.654
13.926000,11.3409,8.1832,2.6447,14.233
13.931000,11.9309,8.4402,3.3055,14.984
13.937000,12.7603,8.5013,4.0109,15.849
13.941000,14.0577,9.1964,3.9936,17.267
13.946000,14.3052,9.0753,3.4475,17.288
13.951000,14.3360,7.6732,2.5892,16.465
13.955000,14.3269,5.0370,1.5931,15.270
13.960000,14.7440,3.4757,1.2610,15.200
13.965000,15.3321,3.5341,0.9406,15.762
13.970000,15.3086,3.4943,0.0545,15.702
13.974000,14.9360,3.4747,-0.4055,15.340
13.981000,15.1492,4.8271,0.5963,15.911
13.985000,15.2088,5.4708,1.6963,16.252
13.990000,14.5023,4.6309,2.2304,15.386
13.994000,13.1887,3.9887,3.2542,14.158
14.000000,11.1309,3.1860,3.1496,11.999
14.006000,9.4971,1.2261,3.2940,10.127
14.009000,8.9471,0.1700,5.5521,10.531
14.014000,6.8631,0.0919,6.7520,9.628
14.030000,4.3651,0.4681,5.5117,7.046
14.030000,3.3738,0.2544,3.1432,4.618
14.031000,3.1441,-0.3989,2.1642,3.838
14.041000,3.5304,-1.4380,2.9772,4.837
14.042000,4.1963,-3.7183,3.8279,6.789
14.050000,1.2159,-10.7263,4.7244,11.784
14.052000,0.2314,-10.6516,3.0254,11.075
14.058000,-2.1626,-6.7648,1.2315,7.208
14.059000,-3.8787,-4.3314,-1.1525,5.927
14.064000,-5.2076,-2.7056,-5.3805,7.962
14.068000,-5.7220,-1.2397,-4.7357,7.530
14.073000,-5.9246,-0.3127,-2.1586,6.313
14.078000,-6.1220,-0.1261,0.6078,6.153
14.084000,-5.3250,-0.5739,3.8207,6.579
14.089000,-2.7512,-1.6161,7.0023,7.695
14.093000,3.2873,-1.4599,7.9772,8.751
14.098000,7.7244,-2.1236,6.3678,10.234
14.104000,10.4712,-2.6858,4.4062,11.674
14.108000,11.7781,-3.0956,2.7957,12.495
14.113000,12.1611,-3.6211,1.7313,12.806
14.120000,11.6949,-4.1394,1.2634,12.470
14.123000,10.1082,-4.3593,1.2671,11.081
14.128000,7.8382,-4.2046,1.8858,9.092
14.135000,6.0249,-4.0609,2.8244,7.795
14.140000,4.7698,-4.0522,3.3331,7.091
14.144000,3.9385,-4.0838,3.2735,6.550
14.148000,3.4450,-4.1785,2.6733,6.039
14.156000,3.2406,-4.3338,2.0011,5.770
14.157000,3.1981,-4.4465,1.3826,5.649
14.161000,3.2144,-4.4371,1.0638,5.581
14.171000,3.4628,-4.2867,0.8698,5.579
14.173000,3.9589,-4.0353,0.8222,5.713
14.179000,4.5089,-3.7440,0.8353,5.920
14.181000,4.8526,-3.5141,0.7780,6.042
14.193000,4.9260,-3.4730,0.5979,6.057
14.194000,5.1621,-3.5168,0.4143,6.260
14.196000,5.7837,-3.4387,0.3769,6.739
14.205000,6.4736,-3.2493,0.6064,7.269
14.207000,6.8654,-3.0976,0.9901,7.597
14.210000,6.8892,-2.9032,1.6119,7.648
14.215000,6.6325,-2.7008,2.3630,7.541
14.219000,6.2822,-2.4752,3.0749,7.419
14.224000,6.0515,-2.2283,3.5774,7.375
14.230000,5.9527,-1.8853,3.7930,7.306
14.234000,5.9005,-1.4650,3.7367,7.136
14.240000,5.6809,-0.9337,3.5618,6.770
14.243000,5.2595,-0.4346,3.4407,6.300
14.249000,4.7399,0.0275,3.2585,5.752
14.254000,4.2349,0.5481,3.1515,5.307
14.259000,3.8504,1.0722,3.1034,5.060
14.266000,3.5077,1.6283,3.0455,4.922
14.270000,3.2958,2.2307,2.7177,4.819
14.274000,3.2943,3.0058,2.5363,5.130
14.279000,3.3556,3.8623,2.1596,5.553
14.284000,3.3960,4.7471,1.8055,6.110
14.289000,3.3600,5.7841,1.2197,6.799
14.293000,3.1228,7.1517,0.3205,7.810
14.309000,1.8921,9.4034,-0.3004,9.597
14.315000,0.5303,9.1059,-2.2418,9.393
14.317000,0.8347,9.1539,-3.2008,9.733
14.319000,-0.4193,10.1058,-3.6585,10.756
14.320000,-1.3585,11.0975,-3.7169,11.782
14.347000,-1.7847,12.0333,-3.6455,12.699
14.348000,-2.2162,12.8440,-3.8286,13.584
14.348000,-2.9072,13.3092,-4.0425,14.210
14.349000,-3.8465,13.6011,-4.5911,14.861
14.350000,-4.3963,13.7022,-4.9868,15.230
14.350000,-5.5461,13.7838,-5.9392,16.001
14.351000,-7.1701,13.2085,-6.0440,16.199
14.356000,-9.3195,12.1493,-5.7046,16.340
14.361000,-11.8770,10.8284,-4.7812,16.768
14.366000,-14.4140,9.3468,-3.1535,17.466
14.372000,-17.0233,7.8390,0.8080,18.759
14.378000,-19.4726,6.3290,6.3265,21.430
14.381000,-21.2091,4.6233,9.7601,23.800
14.386000,-21.5584,2.9606,11.1647,24.458
14.392000,-20.2274,1.7603,10.3846,22.805
14.397000,-17.2758,1.3996,8.1874,19.169
14.401000,-15.5546,1.3243,5.0713,16.414
14.406000,-15.6900,1.3938,2.1590,15.899
14.410000,-16.7076,1.7104,0.2309,16.796
14.420000,-17.6657,2.0425,-1.3486,17.834
14.421000,-18.5280,2.0276,-3.1011,18.895
14.425000,-19.1811,1.8508,-5.0112,19.911
14.439000,-19.4927,1.6348,-6.5566,20.631
14.441000,-19.8105,1.2726,-7.9013,21.366
14.443000,-20.1523,0.8368,-8.5124,21.892
14.445000,-19.2915,0.5482,-6.4878,20.361
14.449000,-3.0597,9.9049,0.2408,10.370
14.454000,2.0633,18.8112,-6.7702,20.099
14.458000,-4.0776,10.1086,3.8513,11.560
14.465000,-6.9915,-0.5428,10.9342,12.990
14.468000,2.7038,6.7493,-2.1210,7.574
14.473000,6.7429,8.1549,-6.1530,12.240
14.479000,9.6594,3.7743,-11.2419,15.295
14.484000,14.7374,1.3980,-12.4191,19.323
14.488000,15.8751,-1.1290,-11.6848,19.744
14.493000,11.6013,0.7235,-15.6068,19.460
14.502000,1.4933,3.1411,-15.7190,16.099
14.503000,-7.8935,2.3711,-13.3645,15.702
14.507000,-16.0514,-0.3880,-11.9116,19.992
14.524000,-20.0219,-0.2012,-11.7890,23.236
14.528000,-25.0579,-1.5825,-8.2487,26.428
14.529000,-31.2449,-3.9916,8.2191,32.553
14.531000,-29.0705,-0.4761,24.4931,38.016
14.543000,-26.1539,-1.0902,22.6811,34.636
14.545000,-21.1721,-1.6161,23.2311,31.473
14.547000,-9.7765,-1.3012,13.3094,16.565
14.547000,3.8848,0.2650,2.2420,4.493
14.552000,11.3511,0.7201,-3.3662,11.862
14.556000,11.7887,-0.5534,-7.3200,13.887
14.561000,6.9385,-0.8213,-10.9689,13.005
14.566000,-0.5304,-0.7870,-10.6007,10.643
14.575000,-6.0119,-0.6440,-7.4293,9.579
14.576000,-7.6576,0.2934,-3.4412,8.400
14.582000,-6.5475,0.5610,1.9591,6.857
14.587000,-2.9729,0.3146,6.2480,6.926
14.592000,1.6961,0.1947,8.7758,8.940
14.597000,4.0814,-0.1839,8.2511,9.207
14.601000,3.1288,-0.1183,5.4602,6.294
14.605000,0.8055,0.7736,1.4029,1.793
14.612000,-1.2229,1.0454,-3.0199,3.422
14.615000,-2.2544,1.0904,-6.8017,7.248
14.621000,-2.2174,0.8873,-8.7825,9.101
14.624000,-1.3760,0.8548,-8.4471,8.601
14.630000,-0.0814,0.9375,-5.6330,5.711
14.634000,0.9176,1.2499,-2.6351,3.057
14.641000,0.9200,0.9001,0.3129,1.325
14.653000,0.3335,0.5889,2.2837,2.382
14.656000,-0.2071,0.4715,2.7943,2.841
14.657000,-0.4781,0.5906,2.0619,2.197
14.683000,-0.0522,0.4729,0.6980,0.845
14.684000,0.6449,0.4891,-0.4242,0.914
14.685000,0.9284,0.5388,-0.9361,1.424
14.685000,0.6223,0.5264,-1.2120,1.461
14.686000,0.0261,0.2775,-1.0615,1.098
14.686000,-0.3929,0.1604,-0.7907,0.897
14.688000,-0.3322,0.1271,-0.4400,0.566
14.694000,-0.0260,0.0127,-0.0209,0.036
14.698000,0.2148,-0.2498,0.5531,0.644
14.703000,0.2426,-0.3446,1.1010,1.179
14.707000,0.0505,-0.4060,1.3727,1.432
14.713000,-0.1988,-0.4793,1.3785,1.473
14.718000,-0.3478,-0.5861,1.2023,1.382
14.722000,-0.3898,-0.6045,1.0090,1.239
14.727000,-0.2440,-0.5177,0.8817,1.051
14.733000,-0.0013,-0.4215,0.8894,0.984
14.737000,0.2335,-0.3686,0.8815,0.984
14.742000,0.3677,-0.2488,0.7076,0.835
14.750000,0.3562,-0.1890,0.3557,0.538
14.752000,0.2040,-0.1675,-0.0860,0.278
14.757000,0.0448,-0.1269,-0.5009,0.519
14.762000,-0.1286,-0.0863,-0.7656,0.781
14.770000,-0.2832,-0.0314,-0.8590,0.905
14.773000,-0.2971,0.0139,-0.8437,0.895
14.778000,-0.2353,-0.0100,-0.8057,0.839
14.783000,-0.1455,-0.0220,-0.7378,0.752
14.787000,-0.0469,-0.0195,-0.6209,0.623
14.801000,0.0943,0.0165,-0.4834,0.493
14.802000,0.1348,0.0214,-0.2942,0.324
14.802000,0.1894,0.0048,-0.1846,0.265
14.805000,0.2059,-0.0548,-0.1039,0.237
14.836000,0.2201,-0.0666,0.0005,0.230
14.837000,0.1818,-0.0496,0.0162,0.189
14.837000,0.2178,0.0056,-0.1257,0.252
14.837000,0.3231,0.0536,-0.2412,0.407
14.837000,0.3997,0.0800,-0.2994,0.506
14.838000,0.4697,0.0562,-0.1761,0.505
14.840000,0.4610,0.0133,0.1235,0.477
14.846000,0.4408,0.0446,0.4948,0.664
14.849000,0.4329,-0.0031,0.7369,0.855
14.854000,0.4474,0.0210,0.8272,0.941
14.859000,0.4171,0.1022,0.6564,0.784
14.864000,0.3891,0.1762,0.4199,0.599
14.869000,0.3137,0.2787,0.0291,0.421
14.874000,0.2312,0.3069,-0.3440,0.516
14.878000,0.2326,0.3328,-0.6263,0.746
14.883000,0.2006,0.2822,-0.7320,0.810
14.888000,0.3098,0.4587,-0.7595,0.940
14.893000,0.1471,0.1929,-0.3289,0.409
14.898000,0.2137,0.1808,-0.2122,0.351
14.903000,0.3733,0.3934,-0.1026,0.552
14.927000,0.5233,0.4671,0.0644,0.704
14.928000,0.8387,0.5860,0.1483,1.034
14.929000,0.6579,0.2938,0.3978,0.823
14.930000,0.7266,0.2361,0.3823,0.854
14.931000,0.6169,0.1210,0.5139,0.812
14.932000,0.6182,0.1495,0.6753,0.928
14.938000,0.7587,0.2973,0.8263,1.161
14.944000,0.9404,0.4354,0.7992,1.309
14.948000,1.0108,0.4513,0.8504,1.396
14.953000,0.9196,0.3382,0.8389,1.290
14.958000,0.7698,0.1725,0.9412,1.228
14.961000,0.6188,0.1290,1.0901,1.260
14.967000,0.4447,0.3268,1.1718,1.295
14.971000,0.4627,0.5841,1.1365,1.359
14.976000,0.4755,0.5806,0.8335,1.122
14.981000,0.5964,0.5436,0.6598,1.042
14.985000,0.8372,0.6787,0.3540,1.134
14.991000,1.2676,1.0193,0.0496,1.627
14.996000,1.7231,1.3094,-0.2987,2.185
15.000000,2.1496,1.9649,-0.7537,3.008
15.010000,2.8425,2.8566,-1.3139,4.239
15.011000,3.5890,2.8226,-1.3396,4.758
15.015000,4.7613,3.3460,-1.1113,5.925
15.020000,5.5295,4.3496,-1.0140,7.108
15.030000,5.9492,4.5115,-0.9304,7.524
15.031000,5.9536,4.2151,-0.8461,7.344
15.034000,5.9641,3.9225,-0.1230,7.139
15.039000,5.8494,3.5405,0.1985,6.840
15.044000,5.3791,3.4926,0.2709,6.419
15.049000,4.7508,3.8382,0.3813,6.119
15.056000,4.6318,4.1062,0.6270,6.222
15.059000,5.1726,4.6431,0.7442,6.991
15.064000,6.0789,5.2003,0.7973,8.039
15.068000,7.0501,5.6921,0.8201,9.098
15.075000,8.0965,5.9445,0.7225,10.070
15.080000,8.7253,6.0705,0.3207,10.634
15.084000,8.9929,6.1762,-0.1035,10.910
15.089000,9.2049,6.3549,-0.2477,11.188
15.093000,9.8331,6.9103,-0.1199,12.019
15.099000,10.6617,7.5077,0.0097,13.040
15.103000,11.4519,8.1785,0.0331,14.072
15.107000,12.0490,8.8230,0.4846,14.942
15.113000,12.5293,8.8941,2.1022,15.508
15.117000,13.6723,9.1814,3.4604,16.829
15.122000,14.6732,9.6473,3.3638,17.880
15.127000,14.9099,9.1975,2.4681,17.692
15.132000,14.9241,7.3024,1.8768,16.721
15.141000,15.0138,4.8575,1.6321,15.864
15.143000,15.5434,3.7435,1.4196,16.051
15.148000,16.4088,4.0487,0.2035,16.902
15.153000,16.8457,4.7366,-0.9344,17.524
15.160000,17.3031,5.9744,-1.4893,18.366
15.162000,16.9952,6.0538,-1.6442,18.116
15.167000,16.4081,5.5494,-0.3430,17.325
15.171000,15.6077,5.2423,1.7327,16.555
15.176000,13.7676,4.4598,1.2191,14.523
15.181000,12.3278,3.0739,0.9290,12.739
15.186000,11.4716,2.1701,3.9824,12.336
15.190000,9.3957,2.0957,7.2606,12.058
15.196000,5.2421,1.6276,8.2401,9.901
15.200000,3.4463,1.3293,5.7423,6.828
15.205000,2.6861,0.4190,3.7097,4.599
15.210000,2.4220,-1.2190,3.4097,4.356
15.215000,2.6234,-4.0859,3.6774,6.091
15.220000,0.9345,-11.5125,5.2673,12.695
15.225000,-0.9559,-10.0116,3.7290,10.726
15.230000,-2.8935,-6.2166,1.5657,7.033
15.235000,-4.5522,-3.9652,-3.6923,7.077
15.240000,-5.6734,-2.5728,-6.7685,9.199
15.244000,-5.8539,-0.8508,-5.6472,8.178
15.250000,-5.6255,0.4101,-3.4541,6.614
15.254000,-5.2058,0.6146,-0.5693,5.273
15.260000,-3.0923,0.1093,3.3910,4.591
15.267000,3.1621,0.1579,6.4879,7.219
15.273000,7.7414,-1.0646,5.4728,9.540
15.274000,10.6946,-1.6992,3.7497,11.460
15.279000,12.0181,-2.3430,1.8791,12.388
15.284000,12.1916,-3.2956,0.3857,12.635
15.288000,11.5807,-4.1717,-0.4872,12.319
15.294000,9.9140,-4.6921,-0.9148,11.006
15.299000,7.5131,-4.7504,-0.3861,8.897
15.305000,5.7900,-4.6925,0.7126,7.487
15.309000,4.8337,-4.6306,1.6225,6.888
15.313000,4.4191,-4.6037,1.8519,6.645
15.318000,4.2360,-4.6836,1.4457,6.478
15.323000,4.1380,-4.8601,0.8867,6.444
15.328000,4.2399,-5.0462,0.3914,6.603
15.333000,4.4774,-5.1711,0.2695,6.845
15.338000,4.8262,-5.1885,0.6203,7.113
15.342000,5.2838,-5.1138,1.2552,7.460
15.347000,5.8406,-5.0169,1.9816,7.950
15.352000,6.4015,-4.9439,2.4756,8.459
15.357000,6.9959,-4.8831,2.7673,8.969
15.362000,7.5173,-4.8327,2.8218,9.372
15.368000,7.8187,-4.7602,2.6970,9.543
15.372000,7.8819,-4.6549,2.3956,9.462
15.377000,7.7915,-4.4900,2.0823,9.231
15.382000,7.6651,-4.2839,1.7596,8.956
15.388000,7.5508,-3.9885,1.4775,8.666
15.391000,7.4178,-3.6606,1.2456,8.365
15.396000,7.2616,-3.2761,0.9995,8.029
15.409000,6.9627,-2.8585,0.8822,7.578
15.409000,6.6192,-2.4554,0.8535,7.111
15.412000,6.2284,-1.9995,0.7106,6.580
15.415000,5.7857,-1.5598,0.4914,6.012
