time,ax,ay,az,aT
0.003000,0.2964,0.4430,-0.5195,0.744
0.004000,0.1902,0.4206,-0.6237,0.776
0.004000,0.1240,0.3683,-0.7039,0.804
0.008000,0.0308,0.3561,-0.7247,0.808
0.012000,-0.0275,0.3552,-0.5451,0.651
0.017000,-0.0696,0.3118,-0.3354,0.463
0.028000,-0.0765,0.2578,-0.1866,0.327
0.028000,-0.1125,0.1440,-0.1299,0.224
0.031000,-0.1322,0.0786,0.0423,0.159
0.036000,-0.0538,0.0212,0.2466,0.253
0.041000,0.0063,-0.0942,0.3016,0.316
0.046000,0.0079,-0.1887,0.3848,0.429
0.051000,0.0443,-0.1861,0.4697,0.507
0.057000,0.1197,-0.1990,0.5395,0.587
0.061000,0.1602,-0.2543,0.6567,0.722
0.065000,0.0752,-0.3095,0.6973,0.767
0.071000,-0.0231,-0.2845,0.6640,0.723
0.075000,0.0494,-0.2850,0.5836,0.651
0.080000,0.1370,-0.3116,0.4441,0.560
0.086000,0.1053,-0.3095,0.2597,0.418
0.091000,0.0977,-0.2524,0.1116,0.293
0.095000,0.0620,-0.2361,0.0885,0.260
0.104000,-0.0423,-0.2248,0.0612,0.237
0.105000,-0.0623,-0.1835,-0.0416,0.198
0.110000,-0.0294,-0.1127,-0.1363,0.179
0.115000,0.0417,-0.0813,-0.2065,0.226
0.119000,0.0932,-0.0680,-0.4102,0.426
0.124000,0.0601,-0.0510,-0.4801,0.487
0.129000,0.0542,-0.0336,-0.5073,0.511
0.134000,0.0895,-0.0068,-0.5613,0.568
0.139000,0.1732,0.0034,-0.5799,0.605
0.145000,0.1879,-0.0320,-0.5489,0.581
0.149000,0.1078,-0.0554,-0.3034,0.327
0.171000,0.0576,-0.0696,-0.1465,0.172
0.172000,0.0882,-0.0767,-0.0922,0.149
0.172000,0.0447,-0.0880,-0.0971,0.138
0.173000,-0.0057,-0.0645,-0.2282,0.237
0.173000,-0.0252,-0.0461,-0.3568,0.361
0.207000,-0.0045,-0.0894,-0.3328,0.345
0.208000,-0.0534,-0.1459,-0.1970,0.251
0.208000,-0.1592,-0.1292,-0.0567,0.213
0.208000,-0.1709,-0.1326,0.0499,0.222
0.209000,-0.1006,-0.1392,0.1063,0.202
0.209000,-0.0679,-0.1943,0.2296,0.308
0.209000,-0.2016,-0.2097,0.4223,0.513
0.212000,-0.2624,-0.1642,0.5650,0.644
0.218000,-0.1569,-0.1706,0.4956,0.547
0.223000,-0.0887,-0.2145,0.3958,0.459
0.227000,-0.1608,-0.1930,0.3849,0.460
0.231000,-0.1630,-0.1211,0.4150,0.462
0.236000,-0.1172,-0.1282,0.4141,0.449
0.244000,0.0025,-0.1237,0.3967,0.416
0.247000,-0.0069,-0.1149,0.4584,0.473
0.251000,-0.0068,-0.1068,0.5201,0.531
0.256000,0.0172,-0.1066,0.4721,0.484
0.261000,0.1343,-0.0878,0.2594,0.305
0.265000,0.1860,-0.0594,-0.0802,0.211
0.278000,0.1289,-0.0975,-0.3011,0.342
0.279000,0.0512,-0.0464,-0.1813,0.194
0.280000,0.0083,-0.0378,-0.1464,0.151
0.286000,-0.0476,-0.0647,-0.1555,0.175
0.295000,-0.0232,-0.0029,-0.1081,0.111
0.296000,-0.0260,-0.0199,-0.1094,0.114
0.305000,-0.0323,-0.0630,0.0152,0.072
0.305000,0.0038,-0.0537,0.1511,0.160
0.310000,-0.0848,-0.0733,0.1958,0.226
0.315000,-0.1208,-0.1003,0.2238,0.273
0.320000,-0.0512,-0.1158,0.3358,0.359
0.328000,-0.0904,-0.1434,0.3364,0.377
0.330000,-0.1230,-0.1234,0.2811,0.331
0.336000,-0.1373,-0.1128,0.2055,0.272
0.340000,-0.0762,-0.0685,0.0641,0.121
0.344000,0.0115,-0.0141,-0.0866,0.088
0.349000,0.0179,-0.0547,-0.1487,0.159
0.353000,-0.0378,-0.0633,-0.2971,0.306
0.359000,-0.0101,-0.0306,-0.1780,0.181
0.364000,0.0493,-0.0427,-0.0540,0.085
0.369000,0.1663,-0.0494,-0.2191,0.279
0.374000,0.1471,-0.1082,-0.3410,0.387
0.379000,0.0822,-0.0853,-0.2337,0.262
0.383000,0.1055,-0.0769,-0.1314,0.185
0.393000,0.0810,-0.1097,-0.1868,0.231
0.394000,0.1088,-0.1167,-0.2948,0.335
0.420000,0.1908,-0.0980,-0.3313,0.395
0.422000,0.2120,-0.0608,-0.2608,0.342
0.422000,0.1510,-0.0654,-0.0499,0.172
0.422000,0.1375,-0.0474,0.0510,0.154
0.422000,0.2267,-0.0403,-0.0583,0.237
0.423000,0.2630,-0.0606,-0.1434,0.306
0.427000,0.1940,-0.0578,-0.1588,0.257
0.434000,0.2157,-0.0346,-0.1623,0.272
0.437000,0.2014,-0.0650,-0.1846,0.281
0.442000,0.2683,-0.0577,-0.2785,0.391
0.446000,0.2560,-0.0318,-0.3604,0.443
0.452000,0.1859,-0.0326,-0.5166,0.550
0.456000,0.0934,0.0022,-0.4056,0.416
0.461000,0.0818,0.0438,-0.1540,0.180
0.467000,0.0922,0.0515,-0.0003,0.106
0.471000,0.0534,0.0253,-0.0059,0.059
0.477000,0.1377,-0.0010,-0.0775,0.158
0.480000,0.1488,-0.0439,-0.1553,0.220
0.486000,0.1010,-0.0840,-0.3042,0.331
0.491000,0.1083,-0.0807,-0.3644,0.389
0.496000,0.2303,-0.0628,-0.2718,0.362
0.513000,0.2300,-0.1427,-0.2918,0.398
0.516000,0.1790,-0.1603,-0.1377,0.277
0.517000,0.1902,-0.1615,0.0162,0.250
0.517000,0.1540,-0.1775,-0.0088,0.235
0.532000,0.0804,-0.2011,-0.0617,0.225
0.533000,0.0171,-0.1366,-0.1211,0.183
0.533000,0.0854,-0.0919,-0.2279,0.260
0.534000,0.1464,-0.1285,-0.4206,0.464
0.539000,0.1347,-0.1748,-0.5350,0.579
0.544000,0.1290,-0.1684,-0.5929,0.630
0.549000,0.1270,-0.1859,-0.5321,0.578
0.553000,0.1407,-0.1866,-0.4794,0.533
0.559000,0.1584,-0.1920,-0.4131,0.482
0.566000,0.1847,-0.1668,-0.3738,0.449
0.568000,0.1414,-0.1634,-0.2606,0.339
0.573000,0.1139,-0.1501,-0.1797,0.260
0.578000,0.0702,-0.1797,-0.2084,0.284
0.585000,-0.0015,-0.1452,-0.2011,0.248
0.588000,0.0178,-0.1326,-0.1770,0.222
0.592000,0.0659,-0.1056,-0.1600,0.203
0.599000,0.0217,-0.1641,-0.0642,0.178
0.603000,0.0047,-0.1958,0.0052,0.196
0.607000,-0.0184,-0.2009,0.0320,0.204
0.612000,-0.0687,-0.1703,0.0926,0.206
0.617000,-0.0510,-0.1780,0.1229,0.222
0.622000,0.0082,-0.1978,0.0758,0.212
0.626000,0.0561,-0.2296,-0.0506,0.242
0.635000,0.0878,-0.2378,-0.0849,0.267
0.641000,0.0752,-0.2301,-0.0658,0.251
0.642000,-0.0266,-0.2333,0.0115,0.235
0.651000,-0.0124,-0.2171,0.1442,0.261
0.652000,-0.0205,-0.2321,0.1973,0.305
0.656000,-0.0693,-0.3143,0.1363,0.350
0.661000,-0.0945,-0.3022,-0.0472,0.320
0.666000,-0.1147,-0.2794,-0.4511,0.543
0.670000,-0.0583,-0.2812,-0.6692,0.728
0.677000,0.0029,-0.2924,-0.7738,0.827
0.681000,0.0567,-0.3107,-1.1238,1.167
0.686000,0.0423,-0.2467,-1.3039,1.328
0.690000,0.2693,-0.1436,-1.4924,1.523
0.695000,0.1585,-0.2059,-1.4344,1.458
0.700000,0.1142,-0.0705,-1.2114,1.219
0.705000,0.2221,0.0471,-1.4045,1.423
0.710000,0.1902,0.0069,-1.5119,1.524
0.719000,0.1928,-0.0524,-1.4765,1.490
0.720000,0.1636,-0.1355,-1.4439,1.459
0.728000,0.0608,-0.2253,-1.3916,1.411
0.730000,-0.0332,-0.2668,-1.0748,1.108
0.739000,-0.0427,-0.3177,-1.0755,1.122
0.740000,-0.1439,-0.4141,-1.1080,1.192
0.747000,-0.0470,-0.3861,-1.1003,1.167
0.749000,-0.0893,-0.3873,-1.2602,1.321
0.754000,-0.1636,-0.3938,-1.1435,1.220
0.759000,0.0280,-0.4302,-1.0496,1.135
0.764000,0.0570,-0.5208,-1.0026,1.131
0.769000,0.0762,-0.5104,-1.1389,1.250
0.773000,0.1109,-0.5288,-1.2893,1.398
0.780000,0.1267,-0.5642,-1.4185,1.532
0.784000,0.1752,-0.5644,-1.3336,1.459
0.788000,0.2729,-0.4963,-1.0973,1.235
0.793000,0.3218,-0.4558,-0.9052,1.063
0.801000,0.3698,-0.3710,-0.8815,1.025
0.803000,0.2327,-0.3088,-0.8591,0.942
0.808000,0.0729,-0.2311,-0.6013,0.648
0.813000,0.0176,-0.0754,-0.2608,0.272
0.818000,0.0056,0.0629,-0.1237,0.139
0.823000,-0.0893,0.0437,-0.1299,0.164
0.827000,-0.0851,0.0207,-0.0711,0.113
0.833000,-0.1076,0.0236,0.1749,0.207
0.839000,-0.1605,0.0240,0.2572,0.304
0.843000,-0.1980,0.0248,0.2455,0.316
0.848000,-0.0313,0.0189,0.3383,0.340
0.854000,0.0697,-0.1414,0.2269,0.276
0.857000,0.1023,-0.2382,0.0716,0.269
0.868000,0.1623,-0.2760,0.0225,0.321
0.869000,0.1105,-0.3296,0.0318,0.349
0.871000,-0.0861,-0.2988,0.2239,0.383
0.876000,-0.0524,-0.2440,0.5079,0.566
0.886000,0.0113,-0.3232,0.6527,0.728
0.888000,0.1342,-0.3903,0.7496,0.856
0.890000,0.1775,-0.4597,0.6099,0.784
0.897000,0.1911,-0.4665,0.3384,0.607
0.901000,0.1335,-0.4921,0.1425,0.529
0.907000,0.1044,-0.4698,0.0262,0.482
0.910000,0.1629,-0.4544,-0.1592,0.508
0.915000,0.3302,-0.4888,-0.5790,0.827
0.920000,0.3740,-0.4243,-0.8273,1.002
0.924000,0.3415,-0.3396,-0.9313,1.048
0.929000,0.2640,-0.1605,-0.8819,0.934
0.935000,-0.1048,0.0353,-0.3797,0.395
0.939000,-0.5007,0.3427,0.4948,0.783
0.945000,-0.6216,0.6529,1.5206,1.768
0.950000,-0.5893,0.6519,1.7381,1.948
0.954000,-0.4858,0.5078,1.0043,1.226
0.958000,-0.5132,0.3153,0.0183,0.603
0.969000,-0.5384,0.1405,-0.5263,0.766
0.970000,-0.4857,-0.0040,-0.7745,0.914
0.994000,-0.3549,-0.1485,-0.8730,0.954
0.995000,-0.2412,-0.2428,-0.8459,0.913
0.996000,-0.1588,-0.2392,-0.3941,0.488
0.996000,-0.0256,-0.1888,0.2849,0.343
0.997000,0.1999,-0.1550,0.7504,0.792
0.998000,0.4370,-0.2123,1.0325,1.141
1.003000,0.5550,-0.2604,1.0726,1.235
1.008000,0.7290,-0.2893,0.8446,1.153
1.013000,0.5501,-0.3736,0.6384,0.922
1.019000,0.3821,-0.1613,0.3650,0.552
1.022000,-0.0096,0.0439,0.5140,0.516
1.032000,-0.2087,0.2584,0.9919,1.046
1.033000,-0.2103,0.3410,1.1061,1.176
1.037000,-0.1433,0.3879,0.9282,1.016
1.043000,-0.2607,0.3356,0.8454,0.946
1.048000,-0.4850,0.3210,0.7951,0.985
1.052000,-0.5721,0.2586,0.3204,0.705
1.056000,-0.5299,0.1060,-0.2975,0.617
1.062000,-0.4999,-0.0260,-0.5960,0.778
1.067000,-0.4208,-0.0779,-0.6122,0.747
1.071000,-0.2555,-0.1506,-0.5138,0.593
1.089000,-0.0142,-0.2546,-0.3582,0.440
1.091000,0.1088,-0.4693,-0.2454,0.541
1.095000,0.0563,-0.6184,-0.1841,0.648
1.095000,-0.0356,-0.6669,-0.1832,0.693
1.098000,0.0381,-0.6612,0.0113,0.662
1.100000,0.2321,-0.7737,0.1369,0.819
1.106000,0.3863,-0.8970,0.2711,1.014
1.111000,0.4534,-0.9334,0.2134,1.059
1.116000,0.4242,-0.8444,0.0407,0.946
1.120000,0.2940,-0.7496,0.0734,0.809
1.125000,0.2796,-0.6067,0.1752,0.691
1.130000,0.4541,-0.4206,-0.0248,0.619
1.134000,0.4914,-0.3206,0.0639,0.590
1.140000,0.6473,-0.2659,0.5627,0.898
1.146000,0.8033,-0.3568,0.7865,1.179
1.151000,0.8996,-0.5270,0.7201,1.267
1.155000,1.1104,-0.4125,0.8194,1.440
1.161000,1.2650,-0.0903,0.8473,1.525
1.165000,1.2925,0.3447,1.0257,1.686
1.169000,1.1335,0.5227,0.6868,1.425
1.183000,0.7568,0.5547,0.7213,1.184
1.185000,0.6841,0.5824,1.0662,1.394
1.185000,0.9240,0.7521,1.4922,1.909
1.190000,2.0024,1.6215,0.7784,2.692
1.204000,-1.1302,-0.2867,0.1333,1.174
1.205000,-0.2241,0.3108,0.9726,1.045
1.205000,0.5907,0.7712,1.3937,1.699
1.214000,0.0004,0.3235,0.8576,0.917
1.215000,0.2463,0.3857,0.3970,0.606
1.218000,0.5927,0.6078,0.4987,0.985
1.223000,0.7674,0.5428,0.5433,1.086
1.227000,0.9953,0.3889,0.6725,1.263
1.233000,0.5103,0.1682,0.6663,0.856
1.237000,0.2282,0.1458,0.8616,0.903
1.242000,0.3777,0.0919,1.1293,1.194
1.247000,0.2706,-0.1944,1.3164,1.358
1.251000,-0.8067,-0.3065,1.3711,1.620
1.257000,-0.4131,-0.2085,1.1866,1.274
1.262000,-0.5879,-0.3650,0.2165,0.725
1.266000,-0.4964,-0.1474,-0.9037,1.042
1.271000,-0.3345,-0.1458,-1.4652,1.510
1.276000,-0.4108,-0.4225,-2.0254,2.109
1.281000,-0.2143,-0.4587,-3.0334,3.075
1.286000,-0.0265,-0.5370,-3.4495,3.491
1.296000,0.3814,-0.6764,-2.3618,2.486
1.297000,0.9662,-0.6675,-1.3264,1.772
1.300000,1.4622,-0.4456,-1.0078,1.831
1.318000,1.8161,-0.1808,-1.1330,2.148
1.319000,1.8616,-0.2246,-1.2217,2.238
1.320000,2.0665,-0.2967,-1.1268,2.372
1.321000,2.5536,-0.1964,-1.0965,2.786
1.330000,2.4676,-0.0210,-1.1875,2.739
1.332000,2.2717,0.3059,-1.8205,2.927
1.335000,2.2077,0.7416,-2.3403,3.302
1.342000,2.3250,0.9135,-2.3967,3.462
1.345000,2.4923,0.6792,-1.8896,3.201
1.349000,1.9344,0.1231,-1.0818,2.220
1.355000,1.1400,-0.1649,-0.6842,1.340
1.360000,0.8513,0.1487,-0.4992,0.998
1.364000,0.9120,0.4724,-0.2917,1.068
1.369000,0.8887,0.7438,-0.2141,1.178
1.375000,0.2406,0.6492,-0.1156,0.702
1.379000,0.8336,0.5946,-0.1994,1.043
1.384000,1.1077,0.4921,-0.2467,1.237
1.390000,0.6372,0.2847,-0.2803,0.752
1.393000,0.3797,0.2475,-0.3682,0.584
1.399000,0.3025,0.1295,-0.6237,0.705
1.403000,0.4599,0.0265,-0.6814,0.822
1.409000,0.8970,0.0438,-0.8308,1.223
1.414000,0.9183,0.0473,-0.9186,1.300
1.418000,0.4908,-0.0493,-0.5544,0.742
1.435000,-0.0313,-0.1314,-0.0939,0.164
1.437000,-0.4988,-0.0272,0.2871,0.576
1.438000,-0.7333,-0.0120,0.4751,0.874
1.440000,-0.7424,-0.1548,0.6335,0.988
1.443000,-0.6781,-0.4674,0.5929,1.015
1.447000,-0.7756,-1.0210,0.4943,1.374
1.452000,-1.0009,-1.2942,0.3326,1.670
1.457000,-0.7925,-1.0864,-0.1890,1.358
1.462000,-0.0501,-0.7276,-0.2850,0.783
1.466000,0.3648,-0.8244,-0.3705,0.975
1.471000,0.6516,-1.1706,-0.7326,1.527
1.476000,0.7599,-1.3905,-1.0630,1.908
1.482000,0.4957,-1.6663,-0.9097,1.962
1.488000,0.3024,-1.8860,-0.7220,2.042
1.492000,0.2287,-1.9711,-0.6185,2.078
1.497000,0.2832,-2.0322,-0.2448,2.066
1.505000,0.2472,-2.3399,0.1085,2.355
1.506000,0.3418,-2.6484,0.4354,2.706
1.511000,-0.1962,-3.3379,0.8084,3.440
1.515000,-0.2396,-3.5390,1.2793,3.771
1.521000,-0.3393,-3.5347,1.5789,3.886
1.525000,-0.7274,-3.4041,1.3398,3.730
1.530000,-1.0824,-3.1142,0.9974,3.444
1.535000,-1.4348,-2.8747,0.6316,3.274
1.547000,-2.0935,-3.0151,0.4375,3.697
1.549000,-2.9853,-3.6612,0.7127,4.778
1.550000,-3.0411,-4.0546,0.6459,5.109
1.558000,-2.9172,-4.3580,0.5773,5.276
1.560000,-2.8963,-4.6980,0.5525,5.547
1.565000,-2.7515,-4.9500,0.4667,5.683
1.570000,-2.4604,-5.1254,0.0541,5.686
1.574000,-1.6620,-4.7337,0.0432,5.017
1.579000,-1.6125,-4.7579,1.1324,5.150
1.584000,0.5913,-3.5916,2.3738,4.346
1.589000,2.5657,-2.1670,3.0945,4.567
1.593000,-2.0472,-3.5225,1.4555,4.326
1.598000,-4.4787,-4.4557,-0.1502,6.319
1.603000,-3.6304,-4.1290,0.1813,5.501
1.609000,-1.9218,-3.4384,0.8833,4.037
1.613000,-0.5402,-2.7397,1.2489,3.059
1.619000,0.7132,-2.0494,1.3586,2.560
1.625000,1.7511,-1.5562,1.2728,2.666
1.629000,1.8443,-1.3531,0.8274,2.432
1.633000,1.6013,-1.2913,0.0316,2.057
1.640000,1.7956,-1.0166,-0.7050,2.181
1.644000,2.6647,-0.4910,-0.8648,2.844
1.648000,3.0392,-0.1527,-0.9804,3.197
1.655000,2.6531,-0.1836,-1.0859,2.873
1.663000,2.4104,-0.0077,-0.9274,2.583
1.664000,2.3657,0.1689,-0.8305,2.513
1.666000,2.0557,0.2552,-0.7103,2.190
1.673000,1.4589,0.1748,-0.4652,1.541
1.678000,1.0102,0.3100,-0.3969,1.129
1.682000,0.9214,0.6843,-0.1149,1.153
1.686000,0.9343,1.0270,0.1738,1.399
1.693000,0.8726,1.3494,0.4484,1.668
1.697000,0.9371,1.6774,0.8440,2.099
1.702000,1.1541,1.9916,0.9834,2.503
1.706000,1.2506,2.2679,1.1289,2.825
1.712000,1.2399,2.4370,1.4554,3.097
1.715000,1.3005,2.4607,1.5132,3.168
1.723000,1.2290,2.1409,1.2932,2.787
1.725000,0.9520,1.7538,0.6728,2.106
1.730000,1.0743,1.6606,0.2228,1.990
1.736000,1.5267,1.8298,0.2195,2.393
1.740000,1.9511,1.9379,0.0643,2.751
1.746000,2.2578,2.0468,-0.2405,3.057
1.751000,2.4857,2.1942,-0.6665,3.382
1.758000,2.6044,2.3653,-1.0411,3.669
1.759000,2.9393,2.4569,-1.2896,4.042
1.765000,3.2638,2.4495,-1.6607,4.406
1.770000,3.2100,2.3381,-1.9747,4.435
1.775000,3.1601,2.3643,-1.7606,4.322
1.779000,3.1427,2.3703,-1.2746,4.138
1.788000,3.3983,2.3395,-1.0064,4.247
1.789000,3.4310,2.3821,-0.9155,4.276
1.797000,3.2836,2.2997,-1.0666,4.148
1.805000,3.1522,2.1570,-1.2319,4.013
1.806000,3.0809,2.2178,-1.3142,4.017
1.808000,2.9149,2.3118,-1.4433,3.991
1.813000,2.5683,2.4035,-1.7442,3.926
1.820000,2.4326,2.5817,-1.8897,4.019
1.823000,2.7062,3.0064,-1.5348,4.326
1.828000,2.6989,3.3038,-1.1327,4.414
1.833000,2.1894,3.1892,-0.9703,3.988
1.838000,1.8634,2.9335,-1.2366,3.689
1.842000,2.0356,3.0770,-1.0753,3.843
1.847000,2.4168,3.1551,-0.8196,4.058
1.858000,2.8711,3.1937,-0.7664,4.362
1.858000,3.2485,3.2092,-1.0619,4.688
1.862000,3.5634,3.2446,-1.5577,5.065
1.872000,3.7976,3.2966,-1.9651,5.399
1.873000,3.9607,3.2005,-2.2368,5.562
1.880000,4.0389,3.0490,-2.5000,5.644
1.881000,3.9535,2.8685,-2.8837,5.672
1.888000,3.7690,2.6423,-3.1483,5.577
1.892000,3.5666,2.4804,-3.2414,5.420
1.901000,3.3630,2.4116,-3.0629,5.149
1.902000,3.1508,2.2901,-2.7401,4.762
1.911000,2.9847,2.1856,-2.5048,4.468
1.912000,3.0104,2.0930,-2.4832,4.428
1.917000,2.9742,1.9529,-2.5314,4.367
1.921000,2.8046,1.8679,-2.5940,4.252
1.927000,2.6423,1.8337,-2.5751,4.120
1.930000,2.4464,1.7931,-2.4654,3.909
1.935000,2.1211,1.6820,-2.2245,3.504
1.940000,1.8286,1.6109,-1.8352,3.051
1.946000,1.6400,1.5373,-1.4811,2.692
1.951000,1.4999,1.3949,-1.2675,2.409
1.974000,1.3315,1.0980,-1.1349,2.066
1.976000,1.1205,0.7832,-0.9074,1.641
1.977000,1.0267,0.6085,-0.6165,1.343
1.979000,0.9903,0.4831,-0.4824,1.203
1.980000,1.0520,0.3061,-0.7801,1.345
1.985000,1.7726,0.2625,-3.1692,3.641
1.986000,2.5614,-0.0763,-4.0787,4.817
1.988000,2.6739,-0.5331,-2.5506,3.734
1.998000,2.8886,-0.7274,-3.0501,4.263
2.006000,2.9665,-1.0012,-2.5816,4.058
2.007000,2.7035,-1.4919,-1.4601,3.416
2.010000,2.0579,-2.2375,-0.2224,3.048
2.016000,1.3364,-2.9358,0.9089,3.351
2.018000,0.9450,-3.4043,1.5460,3.856
2.023000,0.5730,-3.6388,1.6473,4.035
2.027000,0.3435,-3.6266,2.0227,4.167
2.032000,0.0677,-3.3347,2.1046,3.944
2.039000,-0.3647,-3.1316,2.1252,3.802
2.043000,-0.7797,-2.8501,3.0195,4.225
2.049000,-1.0029,-2.5649,3.4211,4.392
2.052000,-1.0745,-2.1482,4.1806,4.822
2.057000,-0.7561,-1.6051,4.6682,4.994
2.063000,-0.1782,-0.9704,4.6427,4.746
2.069000,0.4444,-0.5575,3.7731,3.840
2.072000,0.9410,-0.3352,2.5886,2.775
2.076000,1.2078,-0.1291,1.7590,2.138
2.082000,1.3670,0.0330,1.1925,1.814
2.086000,1.6222,0.2255,0.9065,1.872
2.091000,1.8798,0.3773,0.5616,1.998
2.100000,2.2399,0.5963,-0.1197,2.321
2.101000,2.6164,0.7250,-0.5055,2.762
2.110000,2.7936,0.6760,-0.6462,2.946
2.111000,2.6913,0.5440,-0.5831,2.807
2.116000,2.4515,0.3407,-0.5227,2.530
2.120000,2.0139,0.1404,-0.4480,2.068
2.125000,1.4637,-0.1209,-0.2827,1.496
2.130000,0.8545,-0.4616,-0.0107,0.971
2.135000,0.2897,-0.8736,0.0781,0.924
2.141000,-0.1843,-1.2775,0.2137,1.308
2.145000,-0.6482,-1.6606,0.3562,1.818
2.149000,-1.0749,-2.0198,0.5350,2.350
2.155000,-1.4386,-2.2856,0.8985,2.846
2.160000,-1.8578,-2.5623,1.1237,3.359
2.166000,-2.3115,-2.6606,1.4096,3.796
2.169000,-2.6725,-2.6848,1.5400,4.089
2.176000,-2.9744,-2.6996,1.7019,4.362
2.180000,-3.1180,-2.6566,2.0475,4.579
2.184000,-3.0258,-2.2691,2.4288,4.495
2.189000,-2.6069,-1.8877,2.5480,4.105
2.195000,-2.0547,-1.7181,2.4847,3.653
2.199000,-1.6260,-1.8298,2.1817,3.279
2.203000,-1.1523,-1.8824,1.8963,2.910
2.208000,-0.7637,-1.8062,1.7968,2.660
2.215000,-0.3518,-1.5315,1.8311,2.413
2.218000,0.0317,-1.1568,1.7806,2.124
2.223000,0.3614,-0.7945,1.6711,1.885
2.232000,0.5277,-0.5928,1.3267,1.546
2.233000,0.7682,-0.3514,1.1300,1.411
2.238000,0.7052,-0.3074,0.9195,1.199
2.243000,0.5320,-0.2959,0.6647,0.901
2.248000,0.4272,-0.1447,0.6219,0.768
2.253000,0.1343,-0.0832,0.6847,0.703
2.258000,-0.1252,-0.1157,0.7035,0.724
2.263000,-0.3878,-0.1867,0.8284,0.934
2.267000,-0.4077,-0.2102,0.7858,0.910
2.272000,-0.4913,-0.2608,0.6460,0.852
2.278000,-0.5928,-0.3004,0.5016,0.833
2.282000,-0.8529,-0.2291,0.4146,0.976
2.287000,-1.2206,0.0419,0.4224,1.292
2.291000,-1.9255,0.5444,1.8322,2.713
2.297000,-2.7577,1.3083,3.1165,4.362
2.301000,-3.1617,1.8504,3.3885,4.990
2.306000,-2.5664,1.8891,1.5550,3.546
2.311000,-3.3866,1.3563,-12.7815,13.292
2.316000,-0.5213,2.0957,4.8657,5.323
2.321000,-0.0392,1.5646,-1.9286,2.484
2.325000,0.4002,1.1523,-2.0002,2.343
2.332000,1.1117,1.6898,-1.5829,2.568
2.341000,1.0575,1.8637,-1.3016,2.507
2.342000,0.8836,1.7984,-1.1673,2.319
2.345000,0.9177,1.6145,-0.9057,2.066
2.350000,0.9798,1.4200,-1.2710,2.143
2.355000,1.1752,1.2626,-1.4857,2.276
2.361000,1.3796,1.2393,-1.6994,2.515
2.364000,1.6414,1.2368,-1.6775,2.653
2.370000,1.9510,1.2020,-1.4569,2.715
2.374000,2.1892,1.1225,-1.0171,2.662
2.380000,2.4062,0.9890,-0.8404,2.734
2.385000,2.5160,0.8901,-0.9568,2.835
2.390000,2.4493,0.7591,-0.6362,2.642
2.394000,2.2081,0.5105,-0.6939,2.370
2.399000,1.8921,0.1645,-0.7531,2.043
2.404000,1.7416,-0.0192,-0.6802,1.870
2.412000,1.7176,0.0217,-0.5378,1.800
2.415000,1.7624,0.1120,-0.5011,1.836
2.420000,1.6373,0.0431,-0.4051,1.687
2.425000,1.3162,-0.2401,-0.3910,1.394
2.431000,1.1209,-0.4308,-0.1085,1.206
2.435000,0.9534,-0.4240,0.0619,1.045
2.442000,0.9766,-0.1531,0.5237,1.119
2.446000,0.8159,0.0396,0.6763,1.060
2.448000,0.6441,0.3020,0.7982,1.069
2.453000,0.3686,0.4593,0.9394,1.109
2.459000,-0.1182,0.2489,0.7906,0.837
2.467000,-0.4953,0.0474,0.5150,0.716
2.473000,-0.5298,0.0326,0.2913,0.606
2.474000,-0.3269,0.1349,0.7615,0.840
2.477000,-0.4638,-0.1773,0.7876,0.931
2.484000,-0.7526,-0.9145,0.4535,1.268
2.487000,-0.2843,-0.3995,0.3799,0.620
2.492000,-0.0061,-0.1550,0.3064,0.343
2.496000,-0.1649,-0.5068,0.3180,0.621
2.502000,0.1223,-0.3086,0.4004,0.520
2.507000,0.2394,0.0421,0.5223,0.576
2.511000,-0.0379,-0.1481,1.5155,1.523
2.515000,0.1226,0.3107,1.2150,1.260
2.520000,0.0568,0.4715,0.8445,0.969
2.526000,0.2237,0.7623,-0.0009,0.794
2.533000,0.6911,1.1677,-0.7631,1.557
2.535000,1.0163,1.0718,-1.0762,1.827
2.541000,1.3481,1.1387,-1.5365,2.340
2.545000,1.0690,0.4209,-1.2917,1.729
2.550000,0.9736,0.0485,-1.7615,2.013
2.555000,0.5998,-0.6761,-1.3397,1.616
2.560000,0.4374,-1.0124,-0.9742,1.472
2.564000,0.4274,-1.1917,-0.4344,1.338
2.569000,0.1697,-1.5385,0.2477,1.568
2.585000,0.2955,-1.4088,0.4429,1.506
2.586000,0.4089,-1.3917,0.8263,1.669
2.586000,0.3086,-1.5515,0.9954,1.869
2.593000,0.0799,-1.8142,0.9100,2.031
2.594000,0.0720,-1.8236,0.5467,1.905
2.598000,-0.1017,-1.7622,0.4363,1.818
2.603000,0.0012,-1.6234,0.4489,1.684
2.608000,-0.0278,-1.4861,0.4795,1.562
2.614000,0.0018,-1.2857,0.4415,1.359
2.620000,0.1872,-0.9746,0.9771,1.393
2.625000,-0.0696,-0.7216,2.3178,2.429
2.629000,-0.0478,-0.1529,2.3434,2.349
2.634000,0.3314,0.1000,1.4807,1.521
2.639000,0.5491,-0.0839,0.2117,0.594
2.647000,0.6168,-0.1991,-0.9691,1.166
2.649000,0.8442,-0.1385,-1.5749,1.792
2.652000,0.9848,0.0044,-1.5165,1.808
2.658000,1.0035,0.3591,-0.9934,1.457
2.666000,1.0135,0.7825,-0.7612,1.490
2.668000,0.9965,0.9880,-0.6751,1.557
2.688000,0.9138,1.1309,-0.6887,1.609
2.691000,0.8056,1.1208,-0.6046,1.507
2.693000,0.6494,1.0343,-0.7339,1.425
2.696000,0.4886,0.8978,-1.0557,1.469
2.700000,0.2940,0.6586,-1.3220,1.506
2.701000,0.0496,0.4361,-1.4238,1.490
2.702000,-0.1824,0.2374,-1.0744,1.115
2.711000,-0.7026,-0.1598,-0.2950,0.779
2.712000,-1.2869,-0.5276,0.7186,1.566
2.716000,-2.2748,-1.0470,1.6674,3.009
2.725000,-2.7525,-1.3444,2.5095,3.960
2.725000,-2.7228,-1.5350,2.9048,4.267
2.731000,-2.1165,-1.5093,2.8470,3.855
2.735000,-1.3066,-1.3346,2.2363,2.914
2.742000,-0.3864,-1.1483,1.3624,1.823
2.748000,0.3367,-1.0486,0.5142,1.215
2.749000,0.8065,-1.1051,-0.1270,1.374
2.755000,1.2119,-1.3678,-0.6481,1.939
2.760000,1.1870,-1.4323,-1.0058,2.115
2.764000,0.6912,-0.6700,-1.4930,1.776
2.769000,0.7486,0.7539,-1.6259,1.942
2.774000,1.4041,2.1405,-1.1638,2.812
2.779000,2.0623,3.1286,-0.7999,3.832
2.784000,2.4293,3.4775,-0.6851,4.297
2.791000,2.7424,3.5127,-0.9267,4.552
2.793000,2.1151,2.9167,-0.9902,3.736
2.798000,1.0026,2.1662,-0.8199,2.524
2.804000,0.0729,1.6014,-0.3078,1.632
2.808000,-0.7911,0.9855,0.2746,1.293
2.813000,-1.5260,0.4979,0.7716,1.781
2.818000,-1.7404,0.3492,1.1585,2.120
2.823000,-1.3670,0.3929,1.1312,1.817
2.828000,-0.7810,0.3444,0.6936,1.100
2.832000,-0.2185,0.1821,0.4293,0.515
2.838000,0.0966,-0.1060,0.2482,0.287
2.842000,0.4589,-0.2592,0.3320,0.623
2.847000,0.8746,-0.3111,0.3205,0.982
2.852000,1.1238,-0.3460,0.2340,1.199
2.857000,1.1207,-0.4476,0.1854,1.221
2.861000,1.0646,-0.4823,0.3366,1.216
2.866000,0.8979,-0.5458,0.3924,1.122
2.872000,0.5532,-0.4418,0.1687,0.728
2.876000,0.0561,-0.3929,0.1223,0.415
2.881000,-0.2308,-0.3772,0.1857,0.480
2.887000,-0.1596,-0.2225,-0.3699,0.460
2.891000,-0.2567,-0.2138,-0.5339,0.630
2.896000,-0.3058,0.0581,-0.6331,0.706
2.900000,-0.4659,0.2079,-0.8766,1.014
2.906000,-0.5680,0.2334,-0.7726,0.987
2.910000,-0.5589,0.3236,-0.5795,0.868
2.915000,-0.7500,0.1796,-0.0781,0.775
2.920000,-0.8206,-0.0119,-0.0711,0.824
2.925000,-0.7952,-0.3272,-0.3072,0.913
2.930000,-0.4079,-0.3527,-0.4406,0.696
2.939000,0.0658,-0.1151,-0.2420,0.276
2.940000,0.5093,0.1702,-0.1397,0.555
2.945000,0.6422,0.3476,-0.2163,0.762
2.949000,0.3573,0.4555,-0.0463,0.581
2.957000,0.2114,0.5013,0.2532,0.600
2.959000,0.4835,0.8627,0.1758,1.004
2.964000,0.5212,0.8893,-0.2084,1.052
2.970000,0.1794,0.6746,-0.6199,0.934
2.974000,-0.3018,0.5058,-0.2488,0.639
2.979000,-0.4277,0.5311,0.5865,0.899
2.983000,-0.7347,0.5473,0.7723,1.198
2.989000,-1.3922,0.4803,0.6989,1.630
2.993000,-2.7661,0.3949,0.8167,2.911
2.998000,-2.3437,0.0092,0.8406,2.490
3.004000,-1.3068,-0.6217,0.2868,1.475
3.008000,-0.3832,-1.1082,-0.5296,1.287
3.013000,0.1908,-1.0279,-1.1838,1.579
3.020000,0.4518,-0.4534,-1.3663,1.509
3.023000,0.6104,0.2061,-1.2384,1.396
3.027000,0.2468,0.3004,-0.9231,1.002
3.032000,-0.3621,0.0193,-0.5261,0.639
3.038000,-0.5837,-0.1828,-0.2717,0.669
3.042000,-0.6507,-0.2245,-0.0620,0.691
3.047000,-0.6351,-0.1369,0.0664,0.653
3.054000,-0.6548,0.0081,0.1947,0.683
3.057000,-0.7480,0.0718,0.4543,0.878
3.062000,-0.8283,-0.0029,0.5113,0.973
3.068000,-0.6212,0.0232,0.2799,0.682
3.072000,-0.2512,0.0207,0.0204,0.253
3.076000,0.1723,0.0614,-0.1336,0.226
3.081000,0.4758,0.0256,-0.2826,0.554
3.087000,0.7200,-0.0175,-0.5252,0.891
3.091000,1.0050,0.2284,-0.9003,1.368
3.096000,1.1289,0.2706,-1.1301,1.620
3.103000,1.0132,0.1188,-1.0504,1.464
3.106000,0.9346,0.0195,-0.7839,1.220
3.111000,0.9054,0.0825,-0.3777,0.984
3.115000,0.8318,0.1716,0.0372,0.850
3.120000,0.7571,0.0694,0.3083,0.820
3.125000,0.7174,-0.0208,0.6495,0.968
3.130000,1.0058,0.1210,0.9727,1.404
3.136000,1.3024,0.1791,1.2475,1.812
3.140000,1.3191,0.1058,1.4097,1.933
3.145000,0.8535,-0.0750,1.2256,1.495
3.150000,0.3607,-0.0356,0.7832,0.863
3.155000,-0.1647,0.0804,0.5076,0.540
3.159000,-0.4009,0.1319,0.0590,0.426
3.164000,-0.4129,0.1237,-0.5444,0.694
3.170000,-0.3303,0.0987,-1.0529,1.108
3.174000,-0.4383,-0.0459,-1.4925,1.556
3.179000,-0.3953,-0.0209,-1.7759,1.819
3.186000,-0.3818,-0.0105,-1.6438,1.688
3.189000,-0.4261,0.0188,-1.4810,1.541
3.194000,-0.3787,0.0790,-1.2570,1.315
3.199000,-0.2537,0.0769,-0.8777,0.917
3.205000,-0.1174,0.0366,-0.3942,0.413
3.208000,0.0129,-0.0084,0.0526,0.055
3.213000,0.2733,0.0830,0.4603,0.542
3.221000,0.5697,0.1528,0.8021,0.996
3.223000,0.8433,0.2634,0.8972,1.259
3.227000,1.2030,0.3906,0.7327,1.462
3.233000,1.1122,0.2142,0.4288,1.211
3.237000,0.8961,0.1048,0.1403,0.913
3.242000,0.3974,-0.0115,0.1954,0.443
3.247000,-0.1582,0.0206,0.2582,0.304
3.252000,-0.7573,-0.0118,0.0197,0.758
3.257000,-1.2209,-0.1444,-0.0649,1.231
3.262000,-1.3425,-0.2144,-0.1515,1.368
3.267000,-1.1920,-0.3080,-0.1635,1.242
3.272000,-0.9319,-0.3080,0.0207,0.982
3.276000,-0.7571,-0.2601,0.1844,0.821
3.286000,-0.7300,-0.2550,0.2051,0.800
3.288000,-0.8336,-0.2379,0.1284,0.876
3.291000,-0.8814,-0.2038,0.2230,0.932
3.296000,-0.7848,-0.1193,0.3495,0.867
3.301000,-0.5996,-0.2356,0.2780,0.702
3.306000,-0.3324,-0.4781,0.2288,0.626
3.310000,0.2085,-0.3211,0.3194,0.499
3.316000,0.7270,-0.1379,0.3125,0.803
3.320000,0.5786,-0.4784,0.0403,0.752
3.325000,0.4733,-0.5627,-1.0541,1.285
3.330000,0.4254,-0.4200,-1.9729,2.062
3.335000,0.3152,-0.3926,-2.1414,2.200
3.340000,0.7405,-0.2340,-2.0028,2.148
3.345000,1.3504,0.0171,-1.8157,2.263
3.350000,1.6134,-0.0384,-1.6250,2.290
3.355000,1.9293,-0.1709,-1.3425,2.357
3.360000,1.8432,-0.4422,-0.6793,2.014
3.367000,1.7514,-0.5034,0.0987,1.825
3.370000,1.8800,-0.2994,0.8951,2.104
3.374000,1.9411,-0.1603,1.6330,2.542
3.380000,1.8482,-0.1696,1.8586,2.627
3.384000,1.7639,-0.1982,1.7876,2.519
3.389000,1.4493,-0.2172,1.4778,2.081
3.394000,1.1765,-0.2530,0.8912,1.497
3.400000,0.9732,-0.1812,0.4260,1.078
3.404000,0.8144,-0.2313,0.0432,0.848
3.408000,0.5428,-0.1308,-0.0800,0.564
3.419000,0.2962,0.1178,-0.2865,0.429
3.420000,0.0808,0.3160,-0.5935,0.677
3.423000,0.0452,0.2965,-0.8601,0.911
3.428000,-0.0192,0.2389,-0.9485,0.978
3.433000,-0.3516,0.0308,-1.0241,1.083
3.438000,-0.6729,-0.2631,-0.9676,1.208
3.442000,-0.8809,-0.5397,-0.6359,1.213
3.448000,-0.8690,-0.6175,-0.4403,1.153
3.452000,-0.6372,-0.5255,-0.4044,0.920
3.457000,-0.3947,-0.4431,-0.5586,0.815
3.462000,-0.4094,-0.7335,-0.4155,0.937
3.469000,-0.5329,-0.9327,0.1612,1.086
3.472000,-0.4172,-0.9117,0.3663,1.067
3.477000,-0.4608,-0.9335,0.5237,1.165
3.482000,-0.5493,-0.8047,0.3742,1.044
3.487000,-0.4906,-0.7810,0.1714,0.938
3.492000,-0.3297,-0.6282,0.4476,0.839
3.497000,-0.1170,-0.2364,0.8972,0.935
3.501000,-0.0681,-0.1032,1.1130,1.120
3.506000,-0.3725,-0.0034,0.7250,0.815
3.512000,-0.5442,0.2206,-0.0675,0.591
3.516000,-0.6014,-0.0527,-0.6290,0.872
3.521000,-0.5930,-0.0986,-0.5688,0.828
3.526000,-0.4904,0.1066,-0.1620,0.527
3.533000,-0.2758,0.4120,0.3746,0.621
3.536000,0.0532,0.3705,0.4025,0.550
3.541000,0.3606,0.2382,0.1444,0.456
3.545000,0.2519,0.0417,-0.1773,0.311
3.550000,0.2114,-0.1451,-0.3270,0.416
3.555000,0.2995,-0.1667,-0.2353,0.416
3.560000,0.2339,-0.3770,-0.0867,0.452
3.565000,0.1219,-0.1879,0.0113,0.224
3.569000,0.0578,-0.0995,-0.2279,0.255
3.574000,-0.1186,-0.5990,-0.1394,0.626
3.579000,-0.0548,-0.5697,-0.1063,0.582
3.584000,-0.0661,-0.8296,-0.2358,0.865
3.589000,-0.0440,-0.4821,0.4195,0.641
3.594000,-0.0330,-0.7014,1.2950,1.473
3.599000,-0.1392,-1.1212,0.5508,1.257
3.604000,-0.2862,-0.9477,0.3296,1.043
3.609000,-0.3536,-0.7792,-0.5633,1.024
3.614000,-0.3502,-0.6970,-0.8684,1.167
3.618000,-0.1660,-0.6482,0.5947,0.895
3.623000,-0.1237,-0.9556,0.9181,1.331
3.629000,-0.4136,-1.2698,-0.4743,1.417
3.633000,-0.5660,-1.0770,-0.7647,1.437
3.639000,-0.6435,-1.3983,0.2116,1.554
3.644000,-0.8324,-1.2628,4.2373,4.499
3.648000,-1.0093,-0.9650,-1.6932,2.195
3.653000,-0.8430,0.3961,-4.7877,4.877
3.657000,0.4027,1.1868,-2.6795,2.958
3.662000,1.7553,1.5583,0.5604,2.413
3.667000,1.9154,1.6569,1.2159,2.809
3.672000,1.9958,1.5019,0.3116,2.517
3.680000,1.6369,1.6099,-0.2970,2.315
3.690000,2.1716,0.1643,0.1479,2.183
3.690000,-0.4069,-0.1611,-0.3226,0.544
3.692000,-0.7175,0.3025,-0.6330,1.003
3.704000,-0.1262,0.3618,-1.0398,1.108
3.705000,0.0432,0.6886,-0.9599,1.182
3.721000,0.2889,1.1872,-0.6216,1.371
3.722000,0.6950,1.3578,-0.2512,1.546
3.722000,0.5790,0.6247,0.1956,0.874
3.722000,0.2204,0.3538,0.4299,0.599
3.728000,-0.1883,0.3533,0.6319,0.748
3.731000,-0.3917,0.2812,0.3495,0.596
3.736000,-0.4790,-0.0800,0.1643,0.513
3.740000,-0.8657,0.0993,-0.0959,0.877
3.751000,-0.6278,0.1924,-0.2005,0.687
3.752000,-0.6250,0.1922,-0.2073,0.686
3.755000,-0.4601,-0.1735,-0.0247,0.492
3.760000,-0.8632,-0.1971,0.0512,0.887
3.765000,-0.8524,-0.2087,0.0169,0.878
3.770000,-0.7750,0.0618,0.0334,0.778
3.776000,-0.6540,0.0284,0.0790,0.659
3.779000,-0.4751,-0.0192,0.0937,0.485
3.784000,-0.5085,-0.0500,-0.0040,0.511
3.789000,-0.3898,0.1821,0.1759,0.465
3.794000,-0.2009,-0.1619,0.2412,0.353
3.799000,-0.0828,-0.0993,0.0487,0.138
3.804000,-0.0248,-0.0534,0.1220,0.135
3.810000,-0.0532,0.0020,0.0952,0.109
3.814000,0.0401,-0.0215,-0.1731,0.179
3.818000,0.2352,0.0125,-0.2022,0.310
3.823000,0.0840,-0.0994,0.0124,0.131
3.828000,0.0307,-0.1992,-0.2730,0.339
3.833000,0.0367,-0.0454,-0.4083,0.412
3.838000,0.1031,-0.1476,-0.2547,0.312
3.843000,0.0255,-0.1969,-0.4677,0.508
3.848000,-0.1337,0.1482,-0.5764,0.610
3.853000,-0.3125,0.4164,-0.6002,0.795
3.859000,0.1132,0.3451,-0.1012,0.377
3.863000,0.1659,-0.5292,-0.3633,0.663
3.867000,-0.2027,-0.7593,-0.8481,1.156
3.873000,-0.2657,-0.6569,-0.6211,0.942
3.877000,-0.1191,0.0405,-0.6897,0.701
3.884000,0.5528,0.0633,-0.3082,0.636
3.887000,0.8184,0.1793,-0.1840,0.858
3.893000,1.0756,0.4289,0.6433,1.325
3.897000,1.6328,0.4320,0.8877,1.908
3.902000,1.6212,0.7863,0.2226,1.816
3.907000,1.5124,0.3369,-0.0633,1.551
3.911000,1.1271,0.1054,-0.0239,1.132
3.917000,0.6084,0.1298,-0.0563,0.625
3.921000,0.6059,0.3453,0.1457,0.712
3.927000,0.5313,-0.3525,-0.1737,0.661
3.931000,0.0350,-1.1140,-0.5219,1.231
3.936000,-0.2371,-0.7703,-0.3546,0.881
3.941000,0.1455,-0.1115,-0.2958,0.348
3.945000,0.2052,0.3983,-0.5082,0.678
3.951000,0.7837,-0.1965,-0.6188,1.018
3.956000,-0.0020,-0.9937,-1.1825,1.545
3.960000,-1.9382,-1.2709,-3.9304,4.563
3.966000,-2.7119,0.9599,-5.3236,6.051
3.970000,-1.0203,1.1001,1.6454,2.227
3.975000,1.7350,0.5377,2.6451,3.209
3.980000,3.4321,0.5634,4.0812,5.362
3.985000,2.9727,0.7768,2.4784,3.947
3.991000,1.7211,-0.0097,1.3906,2.213
3.994000,-0.1319,0.2131,0.1464,0.290
3.999000,0.0542,0.8229,-0.0715,0.828
4.004000,-0.1509,0.6241,-0.0456,0.644
4.009000,-0.0812,0.8677,-0.0676,0.874
4.014000,0.6497,0.0238,0.4865,0.812
4.019000,-0.3998,-0.2099,0.8146,0.931
4.025000,-1.3317,0.1826,0.3446,1.388
4.028000,-0.6693,0.2976,-0.3800,0.825
4.035000,-0.3528,-0.3785,0.4971,0.717
4.043000,-1.3725,-1.4982,0.6401,2.130
4.044000,-1.4460,-0.0975,0.2665,1.474
4.048000,-0.7902,-0.5889,0.2433,1.015
4.053000,-1.0240,-0.2742,-0.2677,1.093
4.058000,-0.4050,0.5709,-0.6277,0.940
4.063000,-0.1019,0.9469,-0.8313,1.264
4.068000,0.4495,-1.0363,1.3972,1.797
4.074000,-1.2602,-0.5773,-0.0592,1.387
4.077000,0.0986,1.3366,-0.8265,1.575
4.082000,1.4555,2.8637,-1.5596,3.571
4.087000,2.1436,2.8739,-0.5176,3.622
4.093000,2.0663,2.0210,0.5906,2.950
4.098000,1.1969,0.8604,1.0422,1.805
4.102000,0.2733,0.3247,0.6543,0.780
4.107000,0.0083,0.7909,0.2899,0.842
4.113000,-0.0557,0.6948,0.1536,0.714
4.118000,0.0976,0.7350,0.2473,0.782
4.121000,0.2053,0.3569,0.9014,0.991
4.126000,0.1350,0.5094,0.8841,1.029
4.131000,-0.1486,0.5278,0.4405,0.703
4.136000,-0.2795,0.2640,0.4457,0.589
4.142000,-0.6719,0.3041,0.2372,0.775
4.146000,-0.3720,0.3155,0.1258,0.504
4.152000,-0.4681,0.1739,0.0750,0.505
4.156000,-0.4194,0.4293,-0.1493,0.618
4.160000,-0.3096,0.6342,-0.6695,0.973
4.167000,-0.2580,0.2177,-0.6001,0.689
4.172000,-0.1524,0.0480,-0.2780,0.321
4.175000,-0.0591,0.0220,-0.2240,0.233
4.180000,-0.2101,-0.2596,-0.7082,0.783
4.185000,-0.1371,0.0113,-0.5260,0.544
4.190000,0.1678,0.1936,-0.3232,0.412
4.194000,0.2546,0.2777,-0.0732,0.384
4.199000,0.2890,0.2231,0.0428,0.368
4.205000,0.3285,0.2784,0.2211,0.484
4.209000,0.3325,0.2787,0.2948,0.524
4.214000,0.5737,0.3768,0.3859,0.787
4.219000,0.6455,0.3672,0.3723,0.831
4.224000,0.7924,0.2547,0.0130,0.832
4.229000,0.8756,0.2856,-0.0757,0.924
4.234000,1.1848,0.3523,-0.2629,1.264
4.239000,1.0487,0.1869,-0.3217,1.113
4.243000,0.7923,0.0934,-0.4171,0.900
4.248000,0.8313,0.0669,-0.6833,1.078
4.253000,0.7378,0.0332,-0.7232,1.034
4.258000,0.6932,0.0258,-0.7957,1.056
4.263000,0.6999,0.0232,-0.8123,1.072
4.268000,0.5808,-0.0175,-0.6845,0.898
4.273000,0.4100,-0.1060,-0.5155,0.667
4.279000,0.5070,-0.1274,-0.4007,0.659
4.284000,0.4964,-0.1200,-0.3468,0.617
4.289000,0.4368,-0.2370,-0.3265,0.595
4.293000,0.0046,-0.5187,-0.2280,0.567
4.298000,-0.8767,-1.5265,-0.5770,1.852
4.305000,-1.3677,-2.0834,-0.2115,2.501
4.315000,-0.8788,-1.6810,0.2751,1.917
4.318000,-0.6242,-1.8812,0.4872,2.041
4.319000,-0.7974,-2.7407,1.1884,3.092
4.322000,-1.8836,-3.3815,1.0290,4.005
4.327000,-3.0950,-3.6748,0.5117,4.832
4.331000,-2.6338,-3.0469,-1.1566,4.190
4.338000,-0.9215,-2.1778,0.2773,2.381
4.341000,0.2174,-1.0990,0.8666,1.416
4.347000,0.7688,0.4658,-0.2894,0.944
4.352000,1.7729,2.4038,-1.8069,3.491
4.357000,3.4595,4.3438,-2.1095,5.940
4.362000,4.6664,3.9700,-0.4999,6.147
4.368000,3.9425,2.8333,1.2170,5.005
4.380000,2.0654,1.6969,1.2383,2.946
4.382000,0.8204,1.0966,0.1556,1.378
4.384000,1.1315,1.7086,-0.8567,2.221
4.388000,1.5249,1.8824,-0.9117,2.588
4.391000,1.1438,1.1478,-0.4810,1.690
4.395000,0.1794,0.3829,-0.3435,0.545
4.401000,0.0865,-0.2186,0.3219,0.399
4.406000,0.1228,-0.2196,0.3947,0.468
4.410000,0.0967,-0.0031,0.0122,0.098
4.414000,-0.2424,-0.0473,-0.0923,0.264
4.420000,-0.6203,-0.1344,-0.0830,0.640
4.425000,-0.7120,-0.2953,0.2085,0.799
4.429000,-0.8340,-0.2312,0.4119,0.958
4.434000,-1.2756,-0.4419,0.6547,1.500
4.440000,-1.4081,-0.2794,0.1754,1.446
4.444000,-1.1369,-0.5281,0.7759,1.474
4.448000,-1.1169,0.3230,0.2069,1.181
4.454000,-0.3751,1.2545,-0.2146,1.327
4.458000,0.2671,1.5133,0.1293,1.542
4.463000,0.4687,1.4682,0.4688,1.611
4.469000,0.3979,1.2128,0.3141,1.315
4.473000,0.3926,0.8476,0.5459,1.082
4.478000,0.3709,0.5282,0.4585,0.792
4.487000,0.4474,0.3858,0.2794,0.654
4.489000,0.4410,0.1958,-0.0061,0.483
4.492000,0.3657,-0.0204,-0.3604,0.514
4.497000,0.3985,-0.0929,-0.4808,0.631
4.503000,0.5155,-0.1628,-0.6408,0.838
4.508000,0.8101,-0.1060,-0.7898,1.136
4.514000,1.0481,0.0080,-0.4961,1.160
4.519000,1.1989,0.1482,-0.3193,1.250
4.522000,1.3496,0.2091,-0.1723,1.376
4.527000,1.5476,0.2220,-0.2104,1.578
4.531000,1.8243,0.3805,-0.1135,1.867
4.537000,2.4651,0.6579,-0.0343,2.552
4.542000,3.1622,1.0541,0.3812,3.355
4.546000,3.3909,1.1481,0.5838,3.627
4.552000,3.9075,1.3393,0.5761,4.171
4.557000,3.1713,1.2047,0.5671,3.439
4.562000,1.4639,0.1975,1.0828,1.832
4.566000,0.8891,-0.6819,0.6607,1.301
4.571000,1.0265,-0.2172,0.9245,1.398
4.575000,1.3723,0.1942,1.0499,1.739
4.581000,1.6480,0.3446,1.3446,2.155
4.586000,1.5579,0.3132,1.3241,2.068
4.591000,1.3919,0.1958,1.6127,2.139
4.595000,1.0539,0.0141,1.6631,1.969
4.601000,0.6156,-0.0907,0.8498,1.053
4.610000,0.1550,-0.0732,0.3788,0.416
4.612000,-1.3711,-0.9730,-0.2555,1.701
4.615000,-2.3418,-1.1946,-0.6359,2.705
4.627000,-3.2619,-1.2887,-1.2523,3.724
4.628000,-7.5479,-0.8993,0.1367,7.603
4.630000,-7.7896,-2.2139,0.2227,8.101
4.635000,-4.0760,-3.4476,-3.0199,6.133
4.640000,-1.7877,-1.0732,-3.1303,3.761
4.644000,0.2120,0.2971,-2.3648,2.393
4.650000,0.9614,0.4494,-1.2917,1.672
4.654000,0.4327,0.0686,-0.2965,0.529
4.659000,0.0393,-0.3714,-0.5690,0.681
4.664000,-0.3084,-0.2134,-0.5194,0.641
4.672000,-0.2240,-0.2658,-0.8155,0.886
4.674000,-0.9104,-0.0099,-0.7402,1.173
4.679000,-0.1826,-0.3397,-0.6047,0.717
4.686000,-0.4677,-0.1386,-0.4994,0.698
4.689000,-0.5073,-0.1456,-0.0603,0.531
4.693000,0.0351,-0.2578,-0.6548,0.705
4.700000,-0.1188,0.1679,-0.0739,0.219
4.705000,1.6729,0.1007,0.5113,1.752
4.709000,0.2574,0.0169,0.2071,0.331
4.716000,-1.0605,-0.6427,0.0785,1.243
4.723000,-1.6483,-0.6921,-0.8321,1.972
4.725000,0.8048,-0.2945,0.2237,0.886
4.729000,0.6006,0.1886,1.4064,1.541
4.734000,0.1420,-0.2610,1.3481,1.380
4.741000,0.1526,-0.1532,1.2739,1.292
4.743000,0.1941,0.0142,1.0160,1.034
4.754000,-0.3283,-0.1340,0.3759,0.517
4.756000,-0.3270,-0.1339,0.3907,0.527
4.758000,-0.2832,-0.2198,-0.1505,0.389
4.763000,-0.0301,0.0410,0.1050,0.117
4.772000,0.4043,-0.0044,0.4423,0.599
4.774000,0.2077,-0.1262,0.1879,0.307
4.777000,-0.1296,-0.2837,-0.2999,0.433
4.787000,-0.6201,-0.5317,-1.2899,1.527
4.787000,-0.6359,-0.5238,-1.9733,2.138
4.791000,-0.1750,-0.5063,-2.0410,2.110
4.795000,0.0433,-0.3406,-1.8496,1.881
4.800000,0.1438,-0.6508,-1.6576,1.787
4.805000,0.6743,-0.6811,-1.4955,1.776
4.810000,1.6261,-0.4006,-0.4325,1.730
4.816000,2.1352,-0.5173,1.0069,2.417
4.820000,2.2726,-0.7747,1.3479,2.753
4.826000,2.2494,-0.7690,2.2491,3.273
4.831000,1.8078,-1.4896,3.5995,4.295
4.838000,0.6320,-2.3789,4.4910,5.121
4.841000,0.2106,-0.2796,2.0826,2.112
4.845000,1.2555,0.2831,2.0122,2.389
4.852000,0.0670,-0.3831,2.5560,2.585
4.856000,-1.6365,-1.5404,2.2276,3.164
4.859000,-2.3637,-0.1795,-1.6483,2.887
4.865000,-0.7791,1.6911,-4.5613,4.927
4.869000,-0.6946,1.6163,-3.9638,4.337
4.875000,-1.2368,1.6035,-4.5922,5.019
4.881000,-1.1741,0.9043,-4.3666,4.611
4.886000,-0.5666,1.1903,-3.4930,3.733
4.890000,0.3234,1.3823,-2.3619,2.756
4.895000,0.6750,1.0218,-1.3222,1.802
4.899000,0.4203,0.5662,-0.9741,1.203
4.905000,0.7834,0.4026,-0.4388,0.984
4.909000,0.9608,0.6025,-0.5168,1.246
4.925000,1.2640,1.1534,-0.4641,1.773
4.926000,1.9180,1.0584,0.3620,2.220
4.927000,1.1499,0.6673,0.9848,1.654
4.928000,0.6762,0.2385,0.7722,1.054
4.936000,0.6870,0.1928,0.7524,1.037
4.938000,0.4696,0.1090,0.6911,0.843
4.944000,0.6022,0.2285,0.5692,0.860
4.948000,0.7260,0.3719,0.3312,0.880
4.955000,0.4588,0.4411,0.1489,0.654
4.957000,-0.1972,0.3429,-0.0118,0.396
4.963000,-0.4110,0.1804,0.0787,0.456
4.972000,-1.0319,0.2570,-0.1631,1.076
4.973000,-1.5349,0.0539,-0.4170,1.591
4.977000,-2.1503,-0.1037,-0.5445,2.221
4.984000,-2.1359,-0.1680,-0.2085,2.153
4.987000,-2.0826,-0.1630,-0.1671,2.096
4.992000,-1.1702,0.1285,0.0036,1.177
4.998000,-0.8085,0.2285,-0.3467,0.909
5.004000,-0.6568,0.0343,-0.4436,0.793
5.006000,-0.5379,-0.2648,-0.4479,0.748
5.013000,-0.5466,-0.2697,-0.2663,0.665
5.017000,-0.3485,-0.0858,0.2472,0.436
5.021000,-0.2375,0.0358,0.6582,0.701
5.026000,-0.3735,-0.0005,0.5633,0.676
5.032000,-0.5102,-0.0463,0.1994,0.550
5.035000,-0.6482,-0.0849,-0.1212,0.665
5.040000,-1.0098,-0.3506,-0.3941,1.139
5.047000,-2.1883,-0.8885,-2.4334,3.391
5.052000,1.0144,0.4406,0.8657,1.404
5.055000,1.2079,0.3463,2.2788,2.602
5.060000,0.1742,-0.0011,-0.0719,0.188
5.068000,0.2437,-0.0016,0.0561,0.250
5.071000,0.4897,0.1151,0.4081,0.648
5.075000,0.9942,0.1242,0.4879,1.114
5.079000,1.2749,0.0807,0.0090,1.278
5.085000,1.9827,0.0015,-0.1588,1.989
5.090000,1.7275,-0.1612,-0.7523,1.891
5.095000,1.2488,-0.1659,-0.3660,1.312
5.101000,0.4048,-0.0870,-0.5639,0.700
5.105000,-0.1794,-0.0966,-0.1932,0.281
5.110000,-0.1131,0.0419,-0.2893,0.313
5.117000,0.0077,0.0656,0.0427,0.079
5.118000,0.4964,0.1347,-0.2920,0.591
5.123000,0.3876,0.2419,0.2342,0.513
5.129000,0.6571,0.0575,0.4687,0.809
5.133000,0.3535,0.1936,0.7214,0.826
5.139000,0.4907,0.0523,0.6055,0.781
5.143000,0.9653,0.2219,0.3162,1.040
5.149000,-0.0316,-0.1750,-0.1074,0.208
5.153000,-0.7287,-0.4735,-1.1294,1.425
5.158000,-0.2410,-0.0595,-0.4051,0.475
5.164000,0.0834,0.0337,-0.2222,0.240
5.168000,0.1229,-0.0548,-0.4889,0.507
5.173000,0.2056,0.4328,-0.5051,0.696
5.178000,-0.2421,-0.3446,-0.0104,0.421
5.183000,0.0319,-0.2773,-0.0325,0.281
5.187000,0.1261,-0.0404,0.2942,0.323
5.192000,0.0721,-0.0978,0.2891,0.314
5.202000,0.0372,-0.1336,0.0213,0.140
5.203000,0.0046,-0.1120,-0.0740,0.134
5.207000,0.0915,-0.0569,0.1965,0.224
5.215000,0.1496,-0.0664,0.2874,0.331
5.216000,0.1717,-0.0377,0.1615,0.239
5.222000,0.1606,0.0125,-0.1381,0.212
5.227000,0.3002,0.1033,-0.0598,0.323
5.232000,0.2607,0.1820,0.1186,0.339
5.237000,0.1285,0.0742,0.2286,0.273
5.240000,-0.4220,-0.0167,0.2296,0.481
5.247000,-0.0818,-0.0644,0.1734,0.202
5.252000,0.2106,0.3157,-0.5013,0.629
5.256000,0.2425,0.0691,-1.6763,1.695
5.261000,0.9794,0.3940,-0.1446,1.066
5.265000,0.6817,0.2644,0.4318,0.849
5.272000,0.2066,0.0872,-0.8199,0.850
5.275000,0.5308,0.2137,-1.0131,1.164
5.280000,0.1117,0.4117,1.2600,1.330
5.286000,-0.8348,-0.5447,0.4974,1.114
5.290000,-0.0516,-0.3075,-0.6871,0.754
5.295000,0.1401,0.0490,-0.1432,0.206
5.300000,-0.0483,-0.1184,0.2973,0.324
5.305000,-0.1841,-0.2473,0.0208,0.309
5.309000,-0.0213,-0.1228,0.1365,0.185
5.314000,-0.0240,-0.1609,0.1090,0.196
5.319000,-0.1319,-0.1511,0.0291,0.203
5.325000,1.5768,0.2625,-0.5862,1.703
5.333000,0.2526,0.1092,-0.0301,0.277
5.335000,-0.5153,0.0158,1.1442,1.255
5.339000,-0.1264,-0.4478,0.3782,0.600
5.343000,-0.3503,-0.2585,-0.0635,0.440
5.349000,0.0898,-0.0287,0.1738,0.198
5.353000,0.0271,-0.0119,0.4629,0.464
5.358000,-0.2980,-0.1624,0.2921,0.448
5.363000,0.0314,0.0792,-0.0599,0.104
5.372000,0.0714,-0.0237,-0.3155,0.324
5.374000,0.0515,0.0433,-0.2293,0.239
5.377000,0.0217,0.0577,0.0261,0.067
5.383000,0.0777,0.0265,-0.0417,0.092
5.387000,-0.0308,0.0815,-0.3050,0.317
5.392000,0.0639,0.0958,-0.0159,0.116
5.398000,-0.1551,-0.5926,0.3470,0.704
5.403000,0.8639,0.8134,-1.4507,1.874
5.406000,0.2458,-0.1125,0.2509,0.369
5.413000,-0.1899,-0.1481,0.6915,0.732
5.417000,-0.2262,0.0146,-0.0215,0.228
5.423000,0.0383,0.0122,-0.6908,0.692
5.427000,0.1565,0.1508,-0.7989,0.828
5.431000,-0.1700,0.0670,-0.4922,0.525
5.436000,0.0867,0.1099,-0.1720,0.222
5.443000,0.2619,0.0978,-0.1847,0.335
5.452000,0.2555,0.1526,-0.0181,0.298
5.454000,0.0487,-0.0005,0.3064,0.310
5.458000,-0.0839,-0.0961,0.3204,0.345
5.463000,0.3880,0.0474,0.3276,0.510
5.465000,0.5706,0.1525,0.3234,0.673
5.470000,0.2974,0.0042,0.3725,0.477
5.478000,-0.0256,-0.0269,0.1209,0.126
5.482000,-0.0281,-0.0387,0.3980,0.401
5.484000,0.2968,-0.0266,0.5587,0.633
5.489000,-0.5350,-0.0169,0.2785,0.603
5.494000,-0.8221,-0.2223,-0.4694,0.972
5.498000,-0.6155,-0.0905,-0.3926,0.736
5.503000,-0.6446,-0.1859,-0.3833,0.773
5.508000,-0.6750,-0.1091,-0.5732,0.892
5.513000,-0.3866,0.0345,-0.2043,0.439
5.518000,-0.3214,-0.0301,-0.1298,0.348
5.524000,-0.0373,0.0298,-0.1511,0.158
5.527000,0.1243,0.1182,-0.1199,0.209
5.532000,0.1780,0.0943,-0.0602,0.210
5.537000,-0.0695,0.0775,0.1260,0.163
5.542000,-0.4582,-0.0611,-0.0891,0.471
5.547000,-0.1281,0.0968,-0.2847,0.327
5.552000,0.1201,0.1398,-0.3778,0.420
5.559000,-0.3612,0.0632,-0.5933,0.697
5.562000,-0.6780,-0.0276,-0.4939,0.839
5.568000,-0.0418,0.0538,0.1070,0.127
5.578000,-0.4797,-0.2544,-0.5641,0.783
5.580000,-0.4282,-0.1846,-0.3310,0.572
5.583000,0.4590,0.0213,0.3005,0.549
5.588000,0.7723,0.0024,0.2002,0.798
5.599000,0.5845,-0.0500,0.3087,0.663
5.600000,0.7064,0.0841,0.3675,0.801
5.602000,0.9303,0.0437,-0.0645,0.934
5.607000,0.3114,0.0438,-0.2601,0.408
5.614000,0.4367,0.1635,-0.4547,0.651
5.617000,0.5120,0.1276,-0.1260,0.543
5.621000,0.3683,0.1228,-0.2021,0.438
5.626000,-0.0857,0.1323,-0.2189,0.270
5.630000,0.0727,0.2207,-0.3649,0.433
5.635000,0.1639,-0.0327,-0.4466,0.477
5.640000,0.3007,0.1897,0.0302,0.357
5.645000,0.5430,0.1322,0.4710,0.731
5.650000,0.4537,0.0724,0.5326,0.703
5.655000,0.3772,-0.0972,0.3897,0.551
5.659000,0.4995,-0.1065,0.4460,0.678
5.664000,0.2401,-0.2855,0.1776,0.413
5.670000,0.3753,-0.1535,0.2709,0.488
5.674000,0.3968,-0.1771,-0.4120,0.599
5.679000,-0.1219,-0.3345,-0.7603,0.840
5.684000,-0.3824,-0.2240,-0.6801,0.812
5.690000,0.0616,-0.0636,-0.3982,0.408
5.694000,0.0009,-0.0658,-0.6171,0.621
5.698000,0.1841,0.0585,-0.3179,0.372
5.703000,0.5895,0.2281,-0.0461,0.634
5.709000,0.6845,0.2350,-0.0712,0.727
5.713000,0.8114,0.2226,0.2118,0.868
5.718000,0.5834,-0.0167,0.6881,0.902
5.724000,0.2392,0.0621,0.5529,0.606
5.728000,0.3019,-0.0480,0.5024,0.588
5.734000,0.1473,0.0977,0.2016,0.268
5.738000,0.2868,0.0736,0.0421,0.299
5.744000,-0.1713,-0.0604,0.3728,0.415
5.749000,-0.5743,-0.1248,0.1757,0.613
5.756000,-0.3635,0.0832,0.0082,0.373
5.758000,0.0709,0.2696,-0.4864,0.561
5.763000,0.3159,0.2740,-0.6323,0.758
5.778000,0.3508,0.2593,-0.4109,0.599
5.785000,0.2642,0.2398,-0.1756,0.398
5.789000,0.2859,0.2323,-0.3039,0.478
5.797000,0.4488,0.2391,-0.2339,0.560
5.799000,0.3852,0.2650,-0.0541,0.471
5.801000,0.2623,0.1809,0.0018,0.319
5.802000,0.1922,0.1615,0.0167,0.252
5.810000,0.1724,0.1373,0.0103,0.221
5.811000,0.1503,0.0892,-0.1085,0.206
5.811000,0.0973,0.1081,0.1815,0.233
5.816000,0.0395,0.0529,0.1439,0.158
5.822000,0.0727,-0.0142,0.0111,0.075
5.826000,0.1034,-0.0381,-0.0522,0.122
5.830000,0.0959,-0.0788,-0.0748,0.145
5.836000,-0.0167,-0.1099,-0.0042,0.111
5.841000,-0.1628,-0.2054,0.0734,0.272
5.845000,-0.5386,-0.3558,0.1221,0.657
5.851000,-0.0426,-0.2048,0.0201,0.210
5.855000,-0.0684,-0.1903,0.1623,0.259
5.860000,-0.2186,-0.2259,-0.0324,0.316
5.864000,-0.1539,-0.2424,-0.2462,0.378
5.869000,-0.1708,-0.0605,-0.3815,0.422
5.874000,0.0007,0.0136,-0.2041,0.205
5.880000,0.0931,0.0399,-0.2255,0.247
5.885000,0.1473,0.1282,-0.1944,0.276
5.890000,0.2445,0.1423,-0.1515,0.321
5.894000,0.2749,0.1612,-0.1208,0.341
5.898000,0.2244,0.1538,-0.0038,0.272
5.904000,0.2363,0.1559,-0.0063,0.283
5.909000,0.2509,0.1342,-0.1138,0.306
5.913000,0.2227,0.1411,-0.0395,0.267
5.919000,0.2282,0.1289,-0.0224,0.263
5.923000,0.2173,0.1119,-0.0890,0.260
5.928000,0.2425,0.1141,-0.1267,0.296
5.933000,0.2537,0.0780,-0.1165,0.290
5.937000,0.1600,0.0587,-0.0993,0.197
5.942000,0.1190,-0.0251,-0.1084,0.163
5.947000,0.0520,-0.0658,-0.0867,0.121
5.954000,-0.0365,-0.0850,0.0927,0.131
5.957000,-0.1920,-0.1686,0.0832,0.269
5.962000,-0.1922,-0.1828,-0.0122,0.266
5.967000,-0.1020,-0.1899,0.0479,0.221
5.972000,-0.0958,-0.1395,0.0051,0.169
5.977000,-0.0492,-0.1131,0.1512,0.195
5.983000,-0.1008,-0.1751,0.2545,0.325
5.987000,-0.2029,-0.1750,0.2530,0.368
5.991000,-0.1881,-0.1604,0.2112,0.325
5.996000,-0.0948,-0.1268,0.1315,0.206
6.002000,-0.0353,-0.0645,0.0904,0.116
6.006000,0.0477,0.0001,-0.0750,0.089
6.011000,0.0971,0.0097,-0.1421,0.172
6.016000,0.0629,0.0169,-0.1829,0.194
6.021000,0.0980,0.0981,-0.1331,0.192
6.026000,0.1881,0.1267,-0.2101,0.309
6.030000,0.2210,0.1337,-0.2681,0.372
6.036000,0.1226,0.0642,-0.2378,0.275
6.040000,0.0744,0.1334,-0.2104,0.260
6.045000,0.2011,0.0711,-0.1424,0.256
6.051000,0.0576,0.0757,-0.1368,0.167
6.055000,0.1246,0.0684,-0.0621,0.155
6.059000,0.0172,0.0420,-0.1930,0.198
6.066000,0.0460,-0.0417,-0.0371,0.072
6.070000,0.0031,0.0515,0.1210,0.132
6.074000,0.0150,-0.0896,0.1766,0.199
6.079000,-0.0520,-0.0776,-0.0351,0.100
6.085000,-0.0140,-0.0655,-0.1343,0.150
6.089000,0.0789,0.0397,-0.1000,0.133
6.093000,0.0928,-0.0560,0.1326,0.171
6.100000,-0.0057,-0.1276,0.0665,0.144
6.104000,0.0226,-0.0462,-0.1097,0.121
6.108000,0.1596,-0.0625,0.1080,0.203
6.113000,0.1960,-0.0240,0.1911,0.275
6.118000,0.1515,0.0379,0.1053,0.188
6.123000,0.0673,-0.0455,0.1247,0.149
6.128000,0.0905,0.0095,0.1490,0.175
6.140000,0.1183,-0.0310,0.0166,0.123
6.141000,-0.0605,0.0310,-0.0934,0.116
6.142000,0.0232,-0.0215,0.0134,0.034
6.147000,0.0109,0.0617,-0.1229,0.138
6.152000,0.0014,0.0446,-0.1441,0.151
6.156000,0.0866,0.0964,-0.2032,0.241
6.162000,0.1281,0.1075,-0.0793,0.185
6.168000,0.0630,0.0852,-0.0797,0.133
6.172000,0.1267,0.0417,-0.0655,0.149
6.177000,0.1090,0.0888,-0.0917,0.168
6.185000,0.1817,0.1237,-0.0870,0.236
6.186000,0.1425,0.0538,0.0289,0.155
6.191000,0.0875,0.0486,0.0564,0.115
6.196000,0.0679,0.0411,-0.0116,0.080
6.201000,0.1584,0.0715,-0.1378,0.222
6.206000,0.1839,0.1112,-0.1256,0.249
6.210000,0.0906,0.0296,0.0098,0.096
6.216000,-0.0064,0.0269,-0.0268,0.039
6.221000,0.0162,-0.0279,-0.1028,0.108
6.225000,0.0571,-0.0063,-0.0675,0.089
6.232000,-0.0163,-0.0538,0.0577,0.081
6.235000,-0.0390,-0.0581,0.0258,0.075
6.240000,-0.0239,-0.0814,-0.0011,0.085
6.245000,-0.0758,-0.1092,0.0293,0.136
6.251000,-0.0751,-0.1107,0.0120,0.134
6.254000,-0.0890,-0.1311,-0.0004,0.158
6.259000,-0.1281,-0.1181,-0.0097,0.175
6.264000,-0.1531,-0.1314,-0.0195,0.203
6.269000,-0.0668,-0.1303,-0.0198,0.148
6.274000,-0.0004,-0.1007,-0.0251,0.104
6.283000,0.0511,-0.0192,-0.0944,0.109
6.284000,0.1262,0.0166,-0.1274,0.180
6.288000,0.0582,-0.0168,-0.0990,0.116
6.294000,0.1140,0.0569,-0.0047,0.128
6.299000,0.0953,0.0232,-0.0399,0.106
6.304000,0.0055,0.0729,0.0484,0.088
6.309000,0.0828,0.0414,0.2081,0.228
6.314000,0.0200,0.0695,0.0686,0.100
6.318000,0.2728,0.1686,-0.1289,0.346
6.323000,0.3316,0.1649,-0.2348,0.438
6.328000,0.1742,0.1683,-0.1930,0.310
6.333000,0.1559,0.0814,-0.0996,0.202
6.338000,0.0976,0.0808,-0.0852,0.153
6.343000,0.2131,0.1346,-0.0970,0.270
6.348000,0.1357,0.1074,-0.1918,0.258
6.353000,0.0139,-0.0145,-0.1628,0.164
6.357000,-0.0642,-0.0287,-0.1746,0.188
6.363000,-0.0278,0.0285,-0.1839,0.188
6.368000,0.0605,-0.0074,-0.2931,0.299
6.372000,0.0959,0.0828,-0.1928,0.231
6.377000,0.0504,0.0963,-0.0461,0.118
6.382000,0.0837,-0.0587,-0.0195,0.104
6.386000,0.1168,0.0532,0.0402,0.135
6.391000,0.4180,0.1192,0.0853,0.443
6.398000,0.6629,0.1940,0.1087,0.699
6.401000,-0.0259,-0.0924,-0.1481,0.176
6.406000,-0.3603,-0.1629,-0.0139,0.396
6.411000,-0.3959,-0.2305,-0.0184,0.458
6.416000,-0.3466,-0.2879,0.0839,0.458
6.421000,-0.1369,-0.1788,0.2876,0.365
6.432000,-0.0195,-0.1116,0.2809,0.303
6.433000,0.0570,-0.1067,0.0906,0.151
6.436000,0.6331,0.2805,0.3425,0.773
6.441000,0.0983,-0.2122,-0.1583,0.282
6.446000,-0.3213,-0.1689,-0.1829,0.406
6.450000,-0.1983,-0.2619,-0.1414,0.358
6.455000,-0.6329,-0.3238,-0.1094,0.719
6.465000,-0.6068,-0.2732,-0.0322,0.666
6.465000,-0.2137,-0.2154,0.1571,0.342
6.470000,-0.3115,-0.1315,0.1386,0.365
6.475000,-0.2543,-0.1050,-0.0972,0.292
6.480000,-0.0806,-0.0330,-0.0675,0.110
6.484000,0.0498,0.0197,0.2129,0.220
6.489000,0.2206,0.0173,0.2377,0.325
6.495000,0.2886,0.0198,0.1529,0.327
6.499000,0.2828,0.0438,0.2022,0.350
6.504000,0.3371,0.0318,0.1801,0.383
6.509000,0.3032,0.0796,0.1798,0.361
6.514000,0.3439,0.1154,-0.0306,0.364
6.518000,0.3826,0.1345,-0.2241,0.463
6.523000,1.3969,1.0353,0.2012,1.750
6.529000,2.0426,0.7782,-0.2202,2.197
6.533000,0.7381,0.4784,-0.5454,1.035
6.538000,-0.3700,-0.0386,-0.4626,0.594
6.543000,-0.8107,-0.2539,-0.0770,0.853
6.548000,-1.0732,-0.3636,-0.0598,1.135
6.553000,-1.0052,-0.4182,-0.1712,1.102
6.557000,-0.7527,-0.3460,-0.1774,0.847
6.564000,-0.2414,-0.0277,0.0864,0.258
6.567000,0.0633,0.0393,0.1709,0.186
6.572000,0.0377,0.1110,0.1912,0.224
6.577000,0.0194,-0.0325,-0.1685,0.173
6.582000,-0.3026,-0.1209,-0.3251,0.460
6.586000,-0.1421,-0.1231,-0.2579,0.319
6.592000,0.5485,0.0659,0.0429,0.554
6.597000,1.2010,0.2547,0.5665,1.352
6.602000,0.6070,0.1277,0.5822,0.851
6.606000,0.3132,0.0869,0.0989,0.340
6.611000,2.2649,1.2553,0.8394,2.722
6.616000,1.9241,0.5128,0.0694,1.992
6.621000,0.4563,0.3661,-0.3457,0.679
6.626000,-0.5216,-0.1461,-0.2355,0.591
6.631000,-0.7631,-0.3445,-0.2306,0.868
6.637000,-0.9244,-0.3873,-0.8590,1.320
6.641000,-0.6618,-0.2555,-0.8929,1.140
6.647000,-0.4270,-0.0808,-0.5289,0.685
6.650000,-0.5828,-0.1525,-0.2447,0.650
6.655000,-0.9141,-0.2671,-0.4056,1.035
6.660000,-0.8332,-0.2238,-0.2944,0.912
6.665000,-0.4193,-0.1112,0.2870,0.520
6.670000,-0.1332,-0.0227,0.6054,0.620
6.675000,-0.0749,-0.0513,0.3893,0.400
6.679000,-0.0194,-0.0512,0.2146,0.221
6.684000,0.0597,0.0230,0.0804,0.103
6.690000,0.3133,0.1760,0.4387,0.567
6.695000,0.2926,0.2021,0.4253,0.554
6.699000,0.2458,0.0895,0.2527,0.364
6.703000,-0.0855,-0.0061,0.3915,0.401
6.710000,-0.1609,0.1373,0.5144,0.556
6.714000,-0.2729,0.2089,0.4040,0.530
6.719000,-0.3304,0.2111,0.3425,0.521
6.723000,-0.0182,0.2372,0.2912,0.376
6.729000,0.2858,0.2610,-0.0558,0.391
6.733000,0.0111,0.0887,-0.3643,0.375
6.738000,0.0495,0.1317,-0.1855,0.233
6.744000,-0.1420,0.1269,-0.2413,0.307
6.748000,-0.6088,0.1270,-0.3884,0.733
6.753000,-0.7587,0.1605,-0.5146,0.931
6.758000,-0.7146,0.1940,-0.3572,0.822
6.763000,-0.2806,0.3327,-0.3392,0.552
6.768000,-0.2640,0.3207,-0.4820,0.636
6.772000,-0.2752,0.2563,-0.1977,0.425
6.777000,-0.1587,0.2947,0.0544,0.339
6.781000,0.1097,0.1921,0.3393,0.405
6.787000,-0.3826,0.0539,-0.0043,0.386
6.792000,-0.2651,0.1500,0.0211,0.305
6.796000,-0.2402,0.0884,-0.0257,0.257
6.802000,0.4245,0.4070,-0.0250,0.589
6.807000,0.6370,0.4622,-0.2778,0.835
6.811000,0.6400,0.4505,-0.3111,0.842
6.816000,0.2305,0.3599,-0.4788,0.642
6.821000,0.3404,0.6519,-0.3556,0.817
6.827000,0.2838,0.6160,-0.3984,0.787
6.831000,0.4666,0.9912,-0.0259,1.096
6.835000,0.4298,0.8474,-0.3709,1.020
6.840000,0.5250,1.0813,-0.2547,1.229
6.846000,0.5279,0.6888,0.0163,0.868
6.850000,0.1258,0.5715,0.0674,0.589
6.858000,0.2669,0.7842,0.1069,0.835
6.860000,0.3867,1.2619,0.0150,1.320
6.865000,0.5263,1.1056,-0.3876,1.284
6.870000,0.3775,1.4800,0.2044,1.541
6.875000,0.5427,1.5337,0.3010,1.655
6.879000,0.2784,1.3698,0.0534,1.399
6.884000,0.0625,1.6507,0.1146,1.656
6.890000,0.0667,1.6659,0.0946,1.670
6.895000,0.1475,1.8101,0.0749,1.818
6.899000,-0.0796,1.4714,0.0342,1.474
6.904000,-0.2899,1.3816,0.4509,1.482
6.909000,-0.3139,1.6362,0.6031,1.772
6.913000,-0.5719,1.5582,0.4314,1.715
6.919000,-0.6263,1.5137,0.4763,1.706
6.924000,-0.4367,1.6486,0.3645,1.744
6.929000,-0.4766,1.5180,0.1266,1.596
6.933000,-0.5721,1.3732,0.0426,1.488
6.939000,-0.2078,1.6446,-0.0652,1.659
6.943000,0.1437,1.7962,-0.3590,1.837
6.948000,0.0912,1.4314,-0.0929,1.437
6.953000,0.3685,1.4184,0.0230,1.466
6.959000,0.1560,1.3241,-0.3454,1.377
6.963000,0.1323,1.4307,-0.1192,1.442
6.968000,-0.0780,1.7905,-0.2239,1.806
6.973000,-0.2357,2.0638,-0.1725,2.084
6.977000,-0.0874,2.5185,-0.4259,2.556
6.982000,-0.2164,2.1481,-0.5324,2.224
6.987000,0.2114,2.6577,-0.8837,2.809
6.992000,0.1424,2.6599,-1.0644,2.869
6.997000,-0.3802,2.0240,-1.1598,2.364
7.002000,0.4234,3.0691,-0.0558,3.099
7.006000,0.5222,2.9705,0.3363,3.035
7.012000,-0.2892,1.8753,1.4206,2.370
7.016000,-0.2330,1.9814,2.4371,3.150
7.023000,-0.5070,2.4507,2.6517,3.646
7.026000,-0.5185,2.3340,2.1237,3.198
7.031000,-0.1121,2.2344,1.1727,2.526
7.036000,-0.2785,1.9463,1.6683,2.579
7.041000,-0.2246,1.8596,1.3996,2.338
7.045000,0.3722,2.7174,-0.1011,2.745
7.050000,0.2642,2.7522,-0.5072,2.811
7.055000,-0.0486,1.4248,0.4663,1.500
7.060000,0.5463,2.2167,0.6581,2.376
7.065000,-0.0829,2.3219,1.2457,2.636
7.070000,0.0340,2.1764,1.5784,2.689
7.075000,-0.3219,2.2275,1.4995,2.704
7.080000,-0.3207,2.2002,1.5218,2.694
7.085000,-0.1666,2.3839,1.9534,3.087
7.090000,0.1034,2.3581,2.4477,3.400
7.094000,0.2598,1.8298,1.9935,2.718
7.100000,0.2205,1.2516,0.8893,1.551
7.105000,0.6445,1.3900,1.0144,1.838
7.109000,1.3806,1.4055,1.1820,2.297
7.114000,2.3729,1.5662,-0.4138,2.873
7.119000,2.6203,2.3196,0.2556,3.509
7.124000,1.7768,2.0338,0.8837,2.842
7.129000,1.0684,1.2440,2.5165,3.004
7.134000,2.0485,1.0496,2.7878,3.615
7.139000,2.8826,1.3660,2.4408,4.017
7.143000,3.2718,1.3768,1.7997,3.980
7.148000,3.2990,1.2493,2.2899,4.206
7.153000,3.0469,1.1961,3.3247,4.666
7.158000,2.8670,0.7593,3.7599,4.789
7.163000,2.9755,0.3200,3.2263,4.401
7.168000,3.0260,0.0695,2.6482,4.022
7.173000,3.1007,0.0602,2.2312,3.820
7.178000,3.3197,0.6476,1.5399,3.716
7.182000,3.0839,0.9367,0.7351,3.306
7.188000,2.1429,0.2921,0.8642,2.329
7.192000,2.5205,0.8945,1.0840,2.886
7.197000,2.8964,2.0367,0.3001,3.554
7.202000,3.6434,3.0072,0.5491,4.756
7.207000,1.3952,0.6195,1.0387,1.846
7.212000,1.4228,-0.2980,3.2548,3.565
7.216000,4.4448,2.7145,1.6669,5.468
7.222000,4.0485,3.4190,-0.0548,5.299
7.226000,3.0946,1.9947,-1.4385,3.953
7.231000,0.0408,-1.7868,1.7459,2.498
7.238000,2.7314,-0.4204,3.0307,4.102
7.241000,2.6905,1.7993,1.1971,3.451
7.246000,1.7265,0.8709,0.6254,2.032
7.251000,1.5832,-1.1122,-0.0962,1.937
7.256000,1.5780,-1.8234,0.3332,2.434
7.260000,2.0650,-1.5743,0.1816,2.603
7.265000,2.4315,-1.4696,-0.3661,2.865
7.270000,2.7668,-1.5114,-0.7728,3.246
7.275000,2.9504,-1.5205,-1.1384,3.509
7.279000,3.1792,-1.4063,-1.3504,3.729
7.286000,3.2453,-1.1886,-1.4053,3.731
7.289000,3.0710,-0.8917,-1.3957,3.489
7.296000,2.7621,-0.5134,-1.3719,3.126
7.300000,2.3549,1.3195,-1.7756,3.231
7.305000,0.9678,4.7159,-2.4576,5.405
7.309000,-1.7483,3.8232,-2.2522,4.769
7.314000,-1.6785,0.8645,-1.6822,2.529
7.320000,-0.8774,-0.3722,-1.0558,1.422
7.324000,0.1747,-0.8193,-0.8973,1.228
7.329000,0.7697,-1.2232,-1.1251,1.832
7.336000,0.6400,-1.9442,-0.9251,2.246
7.338000,0.4228,-2.6380,-0.4712,2.713
7.343000,0.2451,-2.8058,-0.1457,2.820
7.348000,-0.0159,-2.6482,0.1290,2.651
7.353000,-0.4329,-2.3954,0.1697,2.440
7.358000,-1.0396,-2.1054,0.0446,2.348
7.363000,-1.4985,-1.7167,0.0226,2.279
7.368000,-1.7805,-1.3451,-0.1964,2.240
7.373000,-2.1593,-1.2303,-0.3932,2.516
7.378000,-2.1658,-1.1336,0.2942,2.462
7.384000,-1.8873,-1.2205,1.7891,2.873
7.389000,-1.5062,-1.6853,2.7735,3.578
7.394000,-1.4665,-2.1554,2.2100,3.418
7.398000,-1.0197,-2.3629,1.8688,3.180
7.405000,-0.0829,-2.0971,1.7926,2.760
7.408000,0.7850,-1.5353,1.8319,2.516
7.413000,1.2704,-1.2006,1.1741,2.106
7.426000,1.3596,-0.9510,1.2115,2.054
7.428000,1.2689,-0.9931,0.3631,1.652
7.429000,1.1550,-0.9840,0.0629,1.519
7.433000,0.8623,-1.0359,-0.8508,1.594
7.438000,0.4505,-1.0124,-0.5877,1.254
7.443000,-0.0440,-1.4032,-1.4759,2.037
7.448000,-0.3964,-1.4877,-0.7789,1.725
7.452000,-0.7647,-1.5431,-1.4194,2.232
7.457000,-0.7787,-1.5143,-1.4582,2.242
7.462000,-0.5938,-1.1165,-0.6907,1.441
7.467000,-0.6563,-0.6472,0.0886,0.926
7.471000,-1.6471,-0.4206,0.3572,1.737
7.476000,-2.1846,-0.2918,0.5832,2.280
7.482000,-2.6306,-0.0755,0.0470,2.632
7.486000,-2.3817,-0.1720,0.1542,2.393
7.492000,-2.0428,-0.7466,0.7487,2.300
7.496000,-1.3982,-1.5345,0.0735,2.077
7.502000,-0.6490,-2.3739,0.3876,2.491
7.506000,0.0674,-3.0236,0.9577,3.172
7.511000,0.7539,-3.4292,0.3683,3.530
7.519000,2.0390,-3.1722,-1.6428,4.113
7.522000,3.7991,-2.3244,-2.5975,5.156
7.525000,5.8444,-1.1469,-2.5705,6.487
7.532000,7.4312,-0.1400,-2.2610,7.769
7.537000,8.1305,0.2565,-1.5333,8.278
7.542000,8.2111,0.1820,-1.8181,8.412
7.545000,7.3107,-0.2362,-1.7516,7.521
7.550000,6.4733,-0.8045,-1.6552,6.730
7.554000,6.2534,-1.2772,-1.8368,6.642
7.559000,5.5945,-1.9257,-2.2293,6.323
7.565000,4.6745,-2.6125,-3.0882,6.182
7.571000,3.8357,-3.1484,-4.2766,6.551
7.576000,2.9092,-3.5786,-4.6349,6.539
7.579000,2.0489,-4.0033,-5.0660,6.774
7.585000,1.3774,-4.4115,-5.3760,7.089
7.589000,0.6572,-4.7831,-5.3355,7.196
7.593000,0.2418,-4.9804,-5.5909,7.491
7.598000,0.2629,-4.9155,-5.4728,7.361
7.604000,0.7240,-4.9015,-5.4071,7.334
7.609000,1.3557,-5.0545,-5.2148,7.388
7.617000,2.0584,-5.3175,-4.7622,7.429
7.620000,2.6875,-5.7050,-4.3490,7.661
7.623000,3.1141,-6.2793,-3.8630,8.003
7.628000,3.3263,-6.9856,-3.5001,8.492
7.636000,3.5046,-7.5550,-3.1179,8.893
7.641000,3.5805,-7.9655,-2.4286,9.065
7.643000,3.5255,-8.5229,-1.7591,9.389
7.648000,3.4162,-9.1918,-1.0470,9.862
7.653000,3.4489,-9.7019,-0.1855,10.298
7.657000,3.3428,-10.0240,0.7126,10.591
7.663000,3.0164,-10.2347,1.4211,10.764
7.667000,2.4329,-10.2974,1.6886,10.715
7.672000,1.5349,-10.2213,2.1464,10.556
7.677000,0.5312,-9.9330,2.9023,10.362
7.682000,-0.5310,-9.5550,3.4894,10.186
7.687000,-1.4459,-9.2077,3.7041,10.030
7.691000,-2.2728,-8.8575,3.9964,9.980
7.696000,-2.8524,-8.5088,4.1424,9.884
7.703000,-2.9511,-8.1334,4.2164,9.625
7.707000,-2.7102,-7.7474,4.2736,9.254
7.711000,-2.0314,-7.3466,4.3005,8.752
7.716000,-1.4044,-6.9127,4.0183,8.118
7.720000,-0.7362,-6.2844,3.5749,7.267
7.725000,-0.1349,-5.5969,3.1995,6.448
7.732000,0.4532,-5.0284,2.7571,5.753
7.735000,1.0476,-4.5222,2.5784,5.310
7.740000,1.5962,-4.0148,2.3183,4.903
7.746000,1.9944,-3.5858,2.2012,4.656
7.753000,2.1600,-3.2241,2.2278,4.475
7.756000,2.0116,-3.0416,2.3711,4.350
7.765000,1.7140,-2.9043,2.2449,4.051
7.769000,1.3641,-2.7151,2.2489,3.780
7.771000,1.0209,-2.3578,2.2445,3.412
7.774000,0.8027,-1.9193,2.1673,3.004
7.779000,0.6746,-1.6481,2.0814,2.739
7.786000,0.7212,-1.3863,1.8841,2.448
7.789000,0.7281,-1.1526,1.5442,2.060
7.795000,0.8109,-0.8888,1.0162,1.575
7.803000,1.0581,-0.5678,0.8449,1.468
7.806000,1.2919,-0.4774,0.6456,1.521
7.810000,1.5449,-0.4464,0.2444,1.627
7.817000,1.6808,-0.3489,-0.1651,1.725
7.820000,1.8665,-0.1860,-0.5621,1.958
7.822000,2.0636,-0.0354,-0.6434,2.162
7.826000,2.2178,0.0469,-0.7389,2.338
7.831000,2.2800,0.0981,-0.7716,2.409
7.837000,2.3312,0.1110,-0.7422,2.449
7.841000,2.3978,0.1453,-0.6083,2.478
7.849000,2.4011,0.1819,-0.5114,2.462
7.854000,2.2669,0.2802,-0.2822,2.302
7.857000,2.1200,0.3795,0.0952,2.156
7.863000,1.9541,0.4242,0.3312,2.027
7.867000,1.7552,0.4426,0.4830,1.874
7.872000,1.5899,0.4704,0.3755,1.700
7.876000,1.2884,0.5113,0.5508,1.492
7.882000,0.9900,0.5582,0.4492,1.222
7.886000,0.6519,0.3939,0.2622,0.805
7.891000,0.4001,0.1844,0.1018,0.452
7.897000,0.1149,-0.0036,-0.0226,0.117
7.902000,-0.2823,-0.1031,0.3594,0.469
7.906000,-0.6328,-0.2339,0.3823,0.775
7.911000,-0.8703,-0.3699,0.4331,1.040
7.916000,-0.9721,-0.4039,0.6951,1.261
7.920000,-0.8890,-0.3033,0.9977,1.370
7.925000,-0.8083,-0.3481,1.1635,1.459
7.930000,-0.7162,-0.4570,1.0848,1.378
7.935000,-0.6212,-0.5010,0.8808,1.189
7.940000,-0.5584,-0.4344,0.9482,1.183
7.949000,-0.4561,-0.2906,0.9590,1.101
7.951000,-0.2499,-0.1739,0.8804,0.932
7.955000,-0.0534,-0.0579,0.7097,0.714
7.966000,0.0147,0.1104,0.5138,0.526
7.968000,0.0611,0.3007,0.4241,0.523
7.969000,0.0140,0.4585,0.3404,0.571
7.975000,-0.1069,0.5655,0.2369,0.622
7.980000,-0.3201,0.5197,0.1380,0.626
7.985000,-0.6485,0.4580,0.2427,0.830
7.989000,-0.8305,0.4111,0.2855,0.970
7.999000,-1.0023,0.3811,0.6343,1.246
8.000000,-1.0843,0.3648,0.6362,1.309
8.004000,-1.1367,0.3234,0.5495,1.303
8.009000,-1.0227,0.3214,0.6252,1.241
8.015000,-0.8612,0.3423,0.4763,1.042
8.019000,-0.7740,0.3507,0.2110,0.876
8.023000,-0.7155,0.3756,0.0780,0.812
8.029000,-0.9939,0.2213,-0.0015,1.018
8.034000,-1.6067,-0.0790,0.2205,1.624
8.039000,-1.7507,-0.1942,0.6190,1.867
8.043000,-1.2990,-0.0052,0.6056,1.433
8.050000,-0.6874,0.2279,0.3272,0.795
8.053000,-0.1613,0.4774,-0.0102,0.504
8.059000,0.1583,0.6865,-0.1416,0.719
8.063000,0.3475,0.7885,-0.1746,0.879
8.068000,0.3800,0.8102,-0.1644,0.910
8.072000,0.2753,0.7709,-0.1730,0.837
8.077000,0.0957,0.6513,-0.1359,0.672
8.082000,-0.0364,0.5566,-0.0915,0.565
8.087000,-0.1567,0.4792,-0.0637,0.508
8.092000,-0.2744,0.3999,-0.0047,0.485
8.097000,-0.3486,0.3566,0.1142,0.512
8.102000,-0.3551,0.3491,0.1613,0.523
8.107000,-0.3010,0.3722,0.2180,0.526
8.112000,-0.2029,0.3661,0.2745,0.501
8.116000,-0.1898,0.3593,0.2306,0.467
8.122000,-0.2068,0.3998,0.2727,0.526
8.126000,-0.2322,0.4015,0.0664,0.469
8.130000,-0.2257,0.3507,-0.2757,0.500
8.136000,-0.2431,0.2427,-0.3187,0.469
8.140000,-0.3127,0.1351,-0.2132,0.402
8.149000,-0.4554,0.0833,-0.2434,0.523
8.151000,-0.5062,0.0202,-0.2206,0.552
8.156000,-0.4271,-0.0162,-0.0253,0.428
8.160000,-0.3070,-0.0838,0.1697,0.361
8.165000,-0.1626,-0.1086,0.2808,0.342
8.169000,0.0748,-0.0742,0.3916,0.406
8.175000,0.3713,-0.0214,0.5065,0.628
8.179000,0.6426,0.0091,0.5730,0.861
8.185000,0.8146,-0.0136,0.6053,1.015
8.190000,0.8802,-0.0224,0.6204,1.077
8.196000,0.8635,0.0116,0.6136,1.059
8.201000,0.7648,0.0740,0.5946,0.972
8.205000,0.5770,0.0856,0.5297,0.788
8.215000,0.3864,0.0345,0.4789,0.616
8.217000,0.2770,0.0332,0.4278,0.511
8.219000,0.2206,-0.0186,0.2022,0.300
8.225000,0.1646,-0.0584,0.2016,0.267
8.228000,0.1244,-0.0694,0.1799,0.230
8.233000,0.0928,-0.0423,0.0869,0.134
8.239000,0.0865,0.0183,0.0970,0.131
8.243000,0.0912,0.0502,0.1028,0.146
8.248000,0.0707,0.0298,0.0875,0.116
8.252000,-0.0109,-0.0023,0.0319,0.034
8.258000,-0.0534,0.0066,-0.0568,0.078
8.263000,-0.0933,0.0014,-0.0184,0.095
8.267000,-0.1020,0.0324,0.0343,0.112
8.272000,-0.0652,0.0589,-0.0131,0.089
8.277000,0.0240,0.0930,-0.0818,0.126
8.282000,0.1266,0.1300,-0.0858,0.201
8.287000,0.2709,0.1867,-0.0636,0.335
8.294000,0.4661,0.2461,-0.0129,0.527
8.296000,0.6236,0.2726,-0.0627,0.683
8.301000,0.6833,0.2567,-0.1342,0.742
8.308000,0.7072,0.2701,-0.0673,0.760
8.312000,0.7122,0.2721,0.0209,0.763
8.316000,0.6963,0.2123,0.0942,0.734
8.320000,0.5735,0.1982,0.1576,0.627
8.330000,0.4272,0.1931,0.2058,0.512
8.331000,0.2554,0.1436,0.1860,0.347
8.335000,0.0690,0.0771,0.1372,0.172
8.340000,-0.0718,-0.0303,0.1170,0.141
8.345000,-0.2071,-0.0735,0.1661,0.275
8.350000,-0.2479,-0.0477,0.1268,0.282
8.361000,-0.2010,-0.0343,-0.0246,0.205
8.362000,-0.0358,0.0002,-0.1565,0.161
8.365000,0.2045,0.1469,-0.1470,0.292
8.370000,0.4078,0.2697,-0.1657,0.516
8.375000,0.5409,0.3522,-0.1982,0.675
8.379000,0.6105,0.3657,-0.1751,0.733
8.385000,0.5874,0.3626,-0.1924,0.717
8.389000,0.5241,0.3786,-0.1619,0.666
8.394000,0.4753,0.3564,-0.2054,0.629
8.400000,0.3768,0.2557,-0.2296,0.510
8.405000,0.3675,0.1960,-0.2797,0.502
8.415000,0.3730,0.1608,-0.2912,0.500
8.416000,0.4050,0.2120,-0.3287,0.563
8.419000,0.4851,0.2710,-0.3419,0.652
8.423000,0.5652,0.2686,-0.3713,0.728
8.427000,0.6836,0.2695,-0.4265,0.850
8.432000,0.6513,0.2551,-0.4572,0.836
8.438000,0.5308,0.2540,-0.4631,0.749
8.442000,0.4537,0.2448,-0.4684,0.696
8.446000,0.4649,0.2245,-0.3608,0.630
8.451000,0.2988,0.1978,-0.4349,0.563
8.456000,0.0726,0.2554,-0.1334,0.297
8.461000,0.0647,0.2988,-0.1307,0.333
8.466000,0.0809,0.2923,-0.0706,0.311
8.471000,0.0900,0.2454,-0.0916,0.277
8.475000,0.1496,0.2635,0.0670,0.310
8.480000,0.2433,0.2703,-0.0562,0.368
8.486000,0.2200,0.1583,-0.3317,0.428
8.492000,0.1315,0.0327,-0.4800,0.499
8.496000,0.1184,0.0083,-0.2242,0.254
8.501000,0.1858,-0.0231,-0.0094,0.187
8.507000,0.2266,-0.0640,0.2122,0.317
8.510000,0.1048,-0.1936,0.3714,0.432
8.515000,0.0859,-0.2471,0.4918,0.557
8.521000,0.0360,-0.2708,0.6162,0.674
8.527000,0.0843,-0.2794,0.7325,0.788
8.531000,0.1205,-0.2853,0.9742,1.022
8.536000,0.1067,-0.2867,0.9300,0.979
8.542000,0.3518,-0.1638,1.2480,1.307
8.545000,0.5300,-0.1132,1.0433,1.176
8.550000,0.6072,-0.1347,0.8971,1.092
8.555000,0.6867,-0.2253,0.8144,1.089
8.563000,0.6732,-0.3174,0.6117,0.963
8.565000,0.6076,-0.3482,0.6000,0.922
8.570000,0.6175,-0.3674,0.6195,0.949
8.576000,0.6819,-0.3147,0.5296,0.919
8.579000,0.6162,-0.3098,0.5405,0.876
8.585000,0.4939,-0.2644,0.5516,0.786
8.589000,0.2263,-0.2957,0.3809,0.533
8.594000,-0.0702,-0.3152,0.3680,0.490
8.599000,-0.4978,-0.1411,-4.8021,4.830
8.608000,-1.7698,0.0841,-11.0362,11.178
8.613000,-0.2890,1.1499,-3.4278,3.627
8.615000,-0.6531,1.8825,-5.2493,5.615
8.619000,-0.7584,2.0700,-5.5077,5.932
8.626000,-0.1309,1.7754,-1.8623,2.576
8.627000,0.5228,1.4992,2.0292,2.577
8.632000,0.4848,1.1133,4.9521,5.099
8.638000,-0.3529,0.5689,6.2192,6.255
8.642000,-1.4417,-0.4487,6.5567,6.728
8.647000,-1.9887,-1.4454,4.7842,5.379
8.652000,-2.0298,-2.0792,2.6418,3.927
8.657000,-1.8227,-2.2912,0.9665,3.083
8.661000,-1.5346,-2.0392,-0.0627,2.553
8.666000,-0.9641,-1.4361,-0.3423,1.763
8.672000,-0.1931,-0.7275,-0.4104,0.857
8.677000,0.5352,-0.0756,0.0192,0.541
8.680000,1.0890,0.3686,0.3911,1.214
8.685000,1.4312,0.6996,0.4867,1.666
8.693000,1.5335,0.9259,0.5898,1.886
8.695000,1.3905,1.0280,0.6234,1.838
8.704000,1.0810,0.9174,0.5442,1.519
8.834000,0.9613,0.0758,0.1447,0.975
8.837000,0.9021,0.0699,0.1335,0.915
8.841000,0.8518,0.0651,0.1245,0.863
8.846000,0.8159,0.0606,0.1185,0.827
8.851000,0.2913,-0.2083,0.3851,0.526
8.856000,0.1715,-0.2172,0.3081,0.414
8.861000,0.1044,-0.1901,0.2432,0.326
8.866000,0.0379,-0.1600,0.1557,0.226
8.870000,0.0275,-0.1726,0.0555,0.183
8.875000,-0.0124,-0.1949,0.0209,0.196
8.881000,0.0079,-0.1796,-0.0377,0.184
8.885000,0.1376,-0.0998,-0.0500,0.177
8.890000,0.2733,-0.0298,-0.0040,0.275
8.895000,0.3365,0.0220,0.0456,0.340
8.900000,0.3784,0.0469,0.0986,0.394
8.905000,0.3365,0.0129,0.0829,0.347
8.909000,0.2498,0.0048,0.0838,0.264
8.916000,0.1688,0.0271,0.1198,0.209
8.919000,0.1910,0.0489,0.2063,0.285
8.924000,0.2338,0.0926,0.2484,0.353
8.929000,0.2319,0.1140,0.1589,0.303
8.935000,0.1744,0.1396,-0.0216,0.224
8.939000,0.2184,0.1366,-0.1046,0.278
8.943000,0.3194,0.1270,-0.0921,0.356
8.951000,0.3758,0.1347,-0.1124,0.415
8.954000,0.3397,0.1103,-0.1180,0.376
8.958000,0.2734,0.0542,-0.1514,0.317
8.964000,0.1867,-0.0001,-0.0952,0.210
8.968000,0.1039,-0.0315,0.0492,0.119
8.973000,0.0530,-0.0484,0.1928,0.206
8.978000,-0.0527,-0.0654,0.3077,0.319
8.983000,-0.1391,-0.0805,0.3218,0.360
8.987000,-0.1829,-0.0658,0.3191,0.374
8.992000,-0.2011,-0.0806,0.3139,0.381
8.998000,-0.2031,-0.0656,0.2878,0.358
9.002000,-0.2121,-0.0542,0.2646,0.343
9.007000,-0.2654,-0.0725,0.2560,0.376
9.013000,-0.3031,-0.1174,0.2737,0.425
9.017000,-0.3197,-0.1556,0.2822,0.454
9.022000,-0.3229,-0.1948,0.3402,0.508
9.026000,-0.2439,-0.1762,0.4895,0.575
9.032000,-0.0316,-0.1181,0.7213,0.732
9.036000,0.1327,-0.1015,0.5799,0.604
9.041000,0.2869,-0.1260,0.7257,0.790
9.047000,0.3896,-0.1980,0.8364,0.944
9.051000,0.4713,-0.3286,0.7223,0.923
9.056000,0.4900,-0.5458,0.7636,1.059
9.061000,0.4521,-0.7327,0.7511,1.143
9.066000,0.4063,-0.9255,0.8155,1.299
9.071000,0.4193,-1.0586,0.8592,1.426
9.075000,0.4889,-1.1521,0.8593,1.518
9.084000,0.5321,-1.1978,0.8545,1.565
9.086000,0.6010,-1.1894,0.7483,1.528
9.091000,0.7373,-1.1850,0.6364,1.534
9.099000,0.9819,-1.1139,0.6229,1.610
9.100000,1.3492,-1.0055,0.7137,1.828
9.105000,1.6064,-0.8797,0.7778,1.990
9.110000,1.8475,-0.8106,0.7380,2.148
9.115000,2.1769,-0.7403,0.6414,2.387
9.121000,2.3862,-0.7531,0.5394,2.560
9.124000,2.5024,-0.8199,0.2742,2.648
9.129000,2.6136,-0.9068,0.0161,2.766
9.134000,2.6249,-1.0630,-0.0879,2.833
9.139000,2.6370,-1.2020,-0.2843,2.912
9.144000,2.6041,-1.2953,-0.4250,2.939
9.149000,2.5255,-1.4448,-0.4557,2.945
9.153000,2.5217,-1.6878,-0.4555,3.068
9.158000,2.4420,-1.8885,-0.2680,3.099
9.163000,2.2051,-2.0968,-0.0966,3.044
9.168000,1.9264,-2.3507,0.0632,3.040
9.173000,1.7149,-2.5527,0.2373,3.084
9.178000,1.5829,-2.7374,0.4728,3.197
9.183000,1.4595,-2.9414,0.8072,3.381
9.187000,1.3604,-3.2057,0.9412,3.607
9.192000,1.0736,-3.4051,1.3062,3.802
9.198000,0.9296,-3.6104,1.2658,3.937
9.202000,0.8750,-3.8367,1.1671,4.105
9.207000,0.9181,-3.9987,1.1945,4.273
9.212000,1.1032,-4.1442,1.1231,4.433
9.217000,1.3502,-4.3123,0.8242,4.593
9.222000,1.3768,-4.4756,0.5563,4.716
9.227000,1.3917,-4.6046,0.4902,4.835
9.232000,1.4274,-4.6419,0.7322,4.911
9.236000,1.5097,-4.6609,0.6254,4.939
9.241000,1.5446,-4.7151,0.6861,5.009
9.246000,1.6379,-4.8008,0.7626,5.129
9.251000,1.6787,-4.8444,0.9923,5.222
9.256000,1.7762,-4.8341,1.1255,5.272
9.261000,1.8256,-4.8187,1.0724,5.263
9.266000,1.8417,-4.6283,0.9598,5.073
9.271000,1.8849,-4.2154,0.6085,4.658
9.276000,2.0030,-3.7318,-0.4561,4.260
9.280000,2.1550,-3.2394,-1.6066,4.209
9.285000,2.3130,-2.7354,-2.3793,4.300
9.290000,2.4527,-2.1914,-2.8981,4.384
9.295000,2.6761,-1.7008,-3.3537,4.615
9.300000,2.8797,-1.2784,-3.9767,5.074
9.305000,3.1124,-0.8442,-4.4537,5.499
9.310000,3.3310,-0.5030,-4.6771,5.764
9.315000,3.4670,-0.3398,-4.6562,5.815
9.319000,3.5660,-0.3491,-4.6248,5.850
9.324000,3.4516,-0.3851,-4.5050,5.688
9.329000,3.1456,-0.3346,-4.4447,5.455
9.334000,2.7136,-0.2095,-4.2323,5.032
9.339000,2.3657,-0.1637,-4.1304,4.763
9.344000,2.0351,-0.3046,-3.9577,4.461
9.349000,1.6808,-0.3663,-3.6720,4.055
9.354000,1.3554,-0.3909,-3.5677,3.836
9.360000,1.1154,-0.4223,-3.7947,3.978
9.363000,1.0174,-0.3588,-3.9782,4.122
9.368000,1.0371,-0.1585,-4.0977,4.230
9.373000,1.1294,0.0872,-4.2586,4.407
9.378000,1.3182,0.3329,-4.3521,4.559
9.383000,1.5590,0.5836,-4.3860,4.691
9.388000,1.7106,0.8778,-4.2896,4.701
9.393000,1.7981,1.1723,-4.2204,4.735
9.398000,1.8940,1.4597,-4.0949,4.742
9.402000,1.9701,1.6494,-3.7754,4.567
9.408000,1.8817,1.7273,-3.3906,4.245
9.412000,1.7790,1.7294,-3.1013,3.972
9.417000,1.6831,1.6057,-2.7777,3.623
9.422000,1.5148,1.5014,-2.4570,3.254
9.427000,1.8703,3.0363,-2.5733,4.398
9.432000,2.7175,5.5160,-3.7153,7.184
9.436000,6.8639,5.2129,-22.1879,23.803
9.442000,5.4923,4.8704,-19.6246,20.953
9.447000,2.5509,4.9130,-11.0599,12.368
9.451000,2.3454,5.1382,-2.6410,6.235
9.456000,2.3515,4.9088,2.3995,5.948
9.461000,2.1654,4.3265,4.0971,6.340
9.466000,2.2165,3.8201,3.0988,5.395
9.471000,1.2887,2.4942,1.4336,3.152
9.476000,0.8134,1.7917,1.6189,2.548
9.481000,0.0268,0.9649,0.3964,1.043
9.485000,-0.0066,0.5312,-0.5683,0.778
9.491000,-0.2126,0.1306,-1.2762,1.300
9.495000,0.1303,-0.1384,-1.0607,1.078
9.500000,-0.1827,-0.1549,0.1734,0.296
9.505000,-0.4161,-0.3820,0.2357,0.612
9.510000,-0.4805,-0.7112,0.5105,0.999
9.515000,-0.2718,-0.9346,0.4529,1.074
9.520000,0.0232,-1.2192,0.2431,1.243
9.525000,0.2645,-1.3982,0.0788,1.425
9.529000,0.6513,-1.2681,-0.2239,1.443
9.534000,1.1892,-0.9828,-0.4123,1.597
9.539000,1.6067,-0.7735,-0.2992,1.808
9.544000,1.7997,-0.6969,-0.0099,1.930
9.549000,1.8336,-0.6092,0.0298,1.932
9.554000,1.8178,-0.4656,-0.1361,1.881
9.559000,1.6163,-0.5928,-0.2049,1.734
9.563000,1.2860,-0.8799,-0.0583,1.559
9.568000,0.9565,-1.1122,0.0245,1.467
9.574000,0.7265,-1.3089,-0.0101,1.497
9.578000,0.4644,-1.4679,0.0166,1.540
9.583000,0.2653,-1.3940,-0.1337,1.425
9.588000,0.0912,-1.3363,-0.4584,1.416
9.593000,-0.0244,-1.3733,-0.9789,1.687
9.598000,0.0789,-1.3548,-1.4098,1.957
9.602000,0.3370,-1.2099,-1.2267,1.756
9.608000,0.5588,-1.1033,-1.4753,1.925
9.612000,0.7428,-0.8660,-1.4137,1.817
9.617000,0.9458,-0.7082,-1.4152,1.844
9.623000,1.3925,-0.4987,-1.2012,1.905
9.627000,2.2711,-0.0617,-0.8866,2.439
9.632000,3.0580,0.3474,-0.4877,3.116
9.637000,3.7390,0.7314,-0.0776,3.811
9.642000,4.3377,1.0811,0.1873,4.474
9.646000,4.4368,1.0638,0.4139,4.581
9.651000,3.8361,0.7126,0.2677,3.911
9.657000,2.9987,0.3834,0.2002,3.030
9.661000,2.1107,0.0758,-0.0348,2.112
9.666000,1.2738,-0.0632,-0.3059,1.312
9.672000,0.7182,0.0653,-0.5901,0.932
9.676000,0.4403,0.3189,-0.9024,1.053
9.681000,0.1002,0.6018,-0.9236,1.107
9.685000,-0.2575,0.9210,-0.8198,1.260
9.691000,-0.3716,1.2716,-0.7652,1.530
9.695000,-0.2317,1.5536,-0.8026,1.764
9.700000,0.1518,1.6838,-0.8362,1.886
9.708000,0.4114,1.4966,-0.7590,1.728
9.710000,0.7028,1.2599,-0.8289,1.664
9.715000,1.1603,1.0929,-0.8193,1.792
9.720000,1.6936,0.9832,-0.6711,2.070
9.728000,1.9990,0.7878,-0.2061,2.159
9.730000,2.0896,0.5478,-0.0684,2.161
9.735000,2.2360,0.3062,-0.4038,2.293
9.740000,2.4825,0.2916,-0.8407,2.637
9.744000,2.6682,0.3980,-1.0783,2.905
9.749000,2.8491,0.5413,-1.2726,3.167
9.755000,2.8298,0.6826,-1.2844,3.182
9.759000,2.6533,0.7044,-1.2349,3.010
9.764000,2.3114,0.5242,-1.1029,2.614
9.768000,0.6888,-0.1328,-0.9692,1.196
9.774000,-1.5281,-1.0236,-1.0676,2.127
9.778000,-2.0442,-1.4103,-1.0131,2.682
9.783000,-1.2221,-1.0843,0.1775,1.643
9.788000,-0.5180,-0.5591,0.7858,1.095
9.793000,0.2629,0.0742,0.5388,0.604
9.798000,0.8735,0.5949,-0.0613,1.059
9.804000,1.2033,0.7281,-0.3559,1.451
9.808000,1.3566,0.5440,-0.4306,1.524
9.813000,1.4301,0.2657,-0.2123,1.470
9.818000,1.1771,-0.0581,-0.4084,1.247
9.822000,0.9123,-0.2178,-0.1509,0.950
9.827000,0.8850,-0.1647,0.0737,0.903
9.832000,1.0089,-0.0469,-0.1866,1.027
9.837000,1.0279,0.0541,-0.7313,1.263
9.842000,0.7581,0.1046,-0.9840,1.247
9.847000,0.6668,0.1898,-1.1596,1.351
9.855000,0.7332,0.4689,-1.2131,1.493
9.859000,0.7352,0.6463,-1.1465,1.508
9.863000,0.7665,0.6103,-1.0124,1.409
9.866000,0.6334,0.4576,-0.8633,1.164
9.873000,0.5612,0.4389,-0.7867,1.061
9.876000,0.5326,0.5038,-0.8275,1.106
9.881000,0.5612,0.5685,-0.9949,1.276
9.886000,0.6852,0.7495,-1.0984,1.496
9.891000,0.7770,0.7649,-0.9006,1.414
9.896000,0.7775,0.6606,-0.7149,1.246
9.900000,0.6674,0.5709,-0.6698,1.105
9.908000,0.6874,0.4601,-0.5501,0.993
9.910000,0.7558,0.3977,-0.2870,0.901
9.915000,0.8105,0.3861,-0.1592,0.912
9.920000,0.7783,0.3846,-0.1801,0.887
9.925000,0.7098,0.3192,-0.0538,0.780
9.930000,0.8514,0.3902,-0.1475,0.948
9.938000,1.0435,0.5776,-0.2248,1.214
9.940000,1.1473,0.6111,-0.2448,1.323
9.946000,1.0328,0.5746,-0.4696,1.272
9.950000,0.9680,0.6159,-0.6504,1.319
9.956000,0.9811,0.7225,-0.5068,1.320
9.960000,0.9568,0.8415,-0.6798,1.444
9.965000,0.7524,0.7894,-0.5455,1.219
9.973000,0.4560,0.5365,-0.6169,0.936
9.975000,0.2719,0.2678,-0.5757,0.691
9.979000,0.2104,0.0413,-0.3691,0.427
9.985000,0.1623,-0.0494,-0.1713,0.241
9.989000,0.0911,-0.1691,-0.0182,0.193
9.993000,0.0150,-0.2151,0.0181,0.216
9.998000,-0.0686,-0.1426,0.2333,0.282
10.004000,-0.1799,-0.0850,0.3804,0.429
10.008000,-0.2171,-0.1043,0.4449,0.506
10.013000,-0.1436,-0.1027,0.4296,0.464
10.018000,-0.0113,-0.0688,0.4612,0.466
10.023000,0.0393,-0.0410,0.3558,0.360
10.028000,0.1312,-0.0081,0.2855,0.314
10.033000,0.3575,0.0705,0.3123,0.480
10.038000,0.5474,0.1365,0.2876,0.633
10.042000,0.6970,0.1922,0.2048,0.752
10.047000,0.8102,0.1774,0.1645,0.846
10.053000,0.7136,0.1420,0.0019,0.728
10.057000,0.6485,0.1958,0.0177,0.678
10.074000,0.7604,0.3312,0.0422,0.830
10.074000,0.8695,0.4479,0.0491,0.979
10.080000,0.8994,0.5053,0.1381,1.041
10.082000,0.8617,0.5966,0.0679,1.050
10.082000,0.8587,0.7340,0.0250,1.130
10.088000,0.6368,0.7744,0.3359,1.057
10.091000,0.4460,0.7286,0.6443,1.070
10.104000,0.0516,0.6474,0.6237,0.900
10.104000,-0.2610,0.5148,0.5875,0.824
10.108000,-0.5003,0.3957,0.6973,0.945
10.112000,-0.5506,0.3119,0.4971,0.805
10.117000,-0.5151,0.3013,0.7365,0.948
10.123000,-0.3464,0.3877,0.5701,0.772
10.125000,-0.2612,0.4606,0.4810,0.715
10.130000,-0.3091,0.4413,0.2829,0.608
10.135000,-0.4539,0.3084,-0.0457,0.551
10.141000,-0.2751,0.3556,0.0155,0.450
10.146000,-0.0043,0.3793,-0.1924,0.425
10.150000,0.2686,0.3097,-0.5784,0.709
10.155000,0.5134,0.3418,-0.4986,0.793
10.160000,0.7887,0.3841,-0.5867,1.055
10.165000,0.8494,0.3289,-0.5271,1.052
10.169000,0.9972,0.3311,-0.5019,1.164
10.176000,0.9817,0.3357,-0.5702,1.184
10.181000,0.8392,0.5217,-0.4738,1.096
10.184000,0.6217,0.6910,-0.3066,0.979
10.189000,0.3974,0.6487,-0.1234,0.771
10.194000,0.0724,0.5319,-0.0984,0.546
10.200000,-0.1992,0.3512,-0.0450,0.406
10.204000,-0.3352,0.2314,0.0011,0.407
10.208000,-0.3413,0.2467,0.0691,0.427
10.213000,-0.3517,0.2966,0.2183,0.509
10.220000,-0.4282,0.2498,0.1863,0.530
10.228000,-0.6427,0.1376,0.1761,0.680
10.228000,-0.5894,0.0796,0.0946,0.602
10.233000,-0.4074,0.1064,-0.0272,0.422
10.237000,-0.1652,0.1934,-0.1680,0.305
10.243000,-0.0843,0.1967,-0.0439,0.218
10.251000,-0.4787,0.0523,-0.0517,0.484
10.252000,-0.8925,-0.1103,-0.2868,0.944
10.258000,-0.8375,-0.0119,-0.4366,0.945
10.262000,-0.5631,0.3014,-0.4322,0.771
10.270000,-0.2506,0.5781,-0.5722,0.851
10.272000,0.1631,0.7892,-0.5840,0.995
10.278000,0.2733,0.7196,-0.5611,0.953
10.283000,0.3795,0.5848,-0.4914,0.853
10.287000,0.4728,0.4444,-0.4297,0.778
10.292000,0.4561,0.2841,-0.3159,0.623
10.297000,0.1313,0.1708,-0.1454,0.260
10.305000,-0.6755,-0.2097,0.0202,0.708
10.306000,-0.1345,0.1320,0.3701,0.415
10.311000,-0.0758,0.3366,0.1859,0.392
10.316000,-0.2470,0.3232,0.2153,0.460
10.321000,-0.4020,0.1288,0.1654,0.453
10.325000,-0.4189,-0.0313,0.0869,0.429
10.334000,-0.3892,-0.0975,-0.0514,0.404
10.335000,-0.3556,-0.0991,-0.0447,0.372
10.340000,-0.4348,-0.1700,-0.1605,0.494
10.345000,-0.4237,-0.1813,-0.2556,0.527
10.357000,-0.2723,-0.0569,-0.2466,0.372
10.359000,-0.0590,0.0095,-0.3908,0.395
10.362000,0.1138,0.0159,-0.3765,0.394
10.366000,0.1321,-0.0472,-0.5407,0.559
10.371000,0.1293,-0.1485,-0.6328,0.663
10.376000,0.2158,-0.0760,-0.4983,0.548
10.381000,0.3077,0.0674,-0.2639,0.411
10.384000,0.1715,-0.1003,-0.0849,0.216
10.391000,-0.1640,-0.4301,-0.0781,0.467
10.395000,-0.1816,-0.5106,0.1170,0.554
10.399000,-0.1446,-0.4834,0.3520,0.615
10.404000,-0.2734,-0.5441,0.3833,0.720
10.409000,-0.0924,-0.5660,0.4789,0.747
10.414000,-0.0626,-0.6924,0.2358,0.734
10.419000,0.1078,-0.5271,0.2490,0.593
10.425000,0.1635,-0.3836,0.2486,0.486
10.429000,0.3462,-0.1856,0.3874,0.552
10.434000,0.2713,-0.2267,0.2401,0.427
10.439000,0.2807,-0.3178,0.1560,0.452
10.443000,0.3985,-0.2417,0.1924,0.504
10.448000,0.3330,-0.1517,0.1266,0.387
10.453000,0.1200,-0.0452,0.0900,0.157
10.458000,-0.1114,-0.0150,0.1854,0.217
10.470000,-0.2023,-0.0294,0.2693,0.338
10.473000,-0.1705,-0.0119,0.3527,0.392
10.474000,-0.1592,-0.0058,0.2660,0.310
10.478000,-0.1324,-0.0565,0.2889,0.323
10.492000,-0.2141,-0.1426,0.3231,0.413
10.493000,-0.3348,-0.3308,0.2515,0.534
10.493000,-0.2723,-0.4803,-0.0191,0.552
10.500000,-0.1725,-0.4555,0.2179,0.534
10.502000,-0.3386,-0.3714,0.1498,0.524
10.506000,-0.4117,-0.4000,0.0900,0.581
10.512000,-0.3158,-0.4740,0.0890,0.576
10.517000,-0.4138,-0.5435,0.5782,0.895
10.521000,-0.6251,-0.6063,0.8054,1.186
10.526000,-0.8730,-0.6888,0.9474,1.461
10.532000,-1.0356,-0.7859,1.2486,1.803
10.536000,-1.3479,-0.8973,1.4478,2.172
10.541000,-1.4164,-0.8053,1.4000,2.148
10.547000,-1.4780,-0.7867,1.2545,2.092
10.551000,-1.6118,-0.9981,1.0555,2.170
10.556000,-1.3769,-0.6625,1.0071,1.830
10.562000,-0.8380,-0.2631,1.0285,1.353
10.566000,-0.4933,-0.2326,0.7075,0.893
10.572000,-0.2622,-0.2989,0.5579,0.685
10.576000,-0.0666,-0.3432,0.7728,0.848
10.583000,-0.0362,-0.3660,0.5979,0.702
10.585000,0.1980,-0.2989,0.6767,0.766
10.590000,0.2974,-0.1166,0.6666,0.739
10.607000,0.1005,-0.1066,0.6673,0.683
10.609000,-0.0791,0.0176,0.3275,0.337
10.609000,-0.2102,0.1598,0.4520,0.523
10.610000,-0.4122,0.2338,0.7217,0.863
10.644000,-0.8143,0.2543,0.8805,1.226
10.645000,-1.2879,0.1931,1.0451,1.670
10.645000,-1.5332,0.1944,1.2852,2.010
10.646000,-1.8187,-0.0303,1.5905,2.416
10.646000,-2.0885,-0.3557,1.6287,2.672
10.647000,-2.4082,-0.5421,1.5051,2.891
10.647000,-2.5641,-0.5368,1.8167,3.188
10.649000,-2.7152,-0.5138,1.8792,3.342
10.654000,-2.8124,-0.4991,1.8672,3.412
10.658000,-2.9112,-0.4110,1.9573,3.532
10.663000,-2.9476,-0.2447,1.9777,3.558
10.668000,-2.9384,-0.1245,1.8806,3.491
10.673000,-2.8787,0.0094,1.9504,3.477
10.680000,-2.8325,0.1590,1.9697,3.454
10.687000,-2.5889,0.3409,1.7077,3.120
10.688000,-2.2994,0.5064,1.3761,2.727
10.693000,-2.1609,0.6287,1.4315,2.667
10.698000,-2.1100,0.6237,1.2164,2.514
10.703000,-1.9378,0.5151,1.1786,2.326
10.708000,-1.7538,0.4388,1.0527,2.092
10.712000,-1.6171,0.3656,0.8602,1.868
10.717000,-1.5173,0.3283,0.7728,1.734
10.721000,-1.4856,0.2624,0.5107,1.593
10.732000,-1.3809,0.2346,0.3030,1.433
10.733000,-1.3831,0.2212,0.2491,1.423
10.736000,-1.3322,0.2534,0.2411,1.377
10.740000,-1.3887,0.2025,0.1783,1.415
10.746000,-1.4147,0.2002,0.1561,1.437
10.751000,-1.3315,0.2350,0.0957,1.355
10.755000,-1.2447,0.2591,0.0355,1.272
10.760000,-1.1450,0.2490,-0.0740,1.174
10.766000,-1.1164,0.2646,-0.1935,1.163
10.771000,-1.1256,0.2682,-0.4957,1.259
10.775000,-1.0416,0.4370,-0.1630,1.141
10.781000,-0.9522,0.4564,-0.4080,1.132
10.785000,-0.8593,0.5080,-0.4815,1.108
10.790000,-0.7731,0.6447,-0.3238,1.057
10.795000,-0.5499,0.8160,-0.4606,1.086
10.802000,-0.2971,0.9214,-0.4845,1.083
10.807000,-0.0665,0.9846,-0.7746,1.255
10.819000,0.4053,1.1676,-0.7326,1.437
10.820000,0.8993,1.2785,-1.1823,1.960
10.821000,1.2857,1.2543,-1.5058,2.344
10.839000,1.6849,1.1642,-1.8723,2.775
10.841000,2.0403,1.0676,-2.2692,3.233
10.842000,2.3379,1.0597,-2.4768,3.567
10.843000,2.4466,0.9946,-2.7847,3.838
10.844000,2.4163,0.9372,-2.8592,3.859
10.850000,2.2491,0.8854,-2.8993,3.775
10.853000,2.2472,0.8830,-2.7841,3.685
10.858000,2.2112,0.8182,-2.6338,3.535
10.863000,2.0883,0.6315,-2.4788,3.302
10.868000,2.0257,0.3932,-2.2810,3.076
10.875000,1.9292,0.2065,-2.1460,2.893
10.878000,1.8387,0.0717,-2.0330,2.742
10.882000,1.8569,-0.0234,-1.8727,2.637
10.887000,1.8830,-0.1097,-1.8607,2.650
10.893000,1.8977,-0.1633,-1.8320,2.643
10.897000,1.8772,-0.2274,-1.8058,2.615
10.902000,1.9103,-0.2067,-1.8130,2.642
10.909000,1.9086,-0.1444,-1.7564,2.598
10.913000,1.9061,-0.0315,-1.6533,2.523
10.917000,1.7289,-0.0521,-1.7071,2.430
10.922000,1.5849,-0.1007,-1.6213,2.270
10.927000,1.4237,-0.1440,-1.4993,2.073
10.932000,1.2883,-0.2246,-1.5490,2.027
10.937000,1.2664,-0.2279,-1.4163,1.914
10.953000,1.1691,-0.2685,-1.3738,1.824
10.955000,1.0221,-0.3364,-1.3305,1.711
10.956000,1.0810,-0.3264,-1.2600,1.692
10.957000,1.2448,-0.2769,-1.2886,1.813
10.962000,1.3441,-0.1738,-1.3181,1.891
10.971000,1.4558,-0.0579,-1.3963,2.018
10.972000,1.5277,-0.0418,-1.5369,2.167
10.975000,1.6197,-0.0130,-1.7086,2.354
10.981000,1.7393,0.0331,-1.8538,2.542
10.985000,1.8676,0.0103,-1.9965,2.734
10.991000,2.0456,0.0045,-2.0960,2.929
10.996000,2.2328,0.0562,-2.2648,3.181
11.001000,2.4443,0.1434,-2.3665,3.405
11.005000,2.5802,0.2490,-2.4849,3.591
11.010000,2.6289,0.3348,-2.5057,3.647
11.015000,2.5907,0.4198,-2.5246,3.642
11.019000,2.5327,0.4802,-2.5083,3.597
11.025000,2.4093,0.5066,-2.5571,3.550
11.029000,2.2277,0.7212,-2.1389,3.171
11.034000,1.9328,0.8085,-2.0666,2.943
11.046000,1.5846,0.7784,-1.8287,2.542
11.047000,1.2446,0.7437,-1.5761,2.142
11.049000,0.9340,0.6638,-1.2086,1.665
11.054000,0.6734,0.5322,-0.9176,1.257
11.070000,0.3407,0.3706,-0.6237,0.802
11.071000,0.0808,0.1819,-0.3154,0.373
11.072000,0.1007,0.1383,-0.1212,0.210
11.076000,0.0345,0.0628,-0.0459,0.085
11.078000,-0.0964,-0.0348,-0.0294,0.107
11.083000,-0.0220,0.0222,0.0099,0.033
11.089000,0.0543,0.0878,0.0259,0.106
11.093000,0.0110,0.0758,-0.0100,0.077
11.098000,0.0227,0.0724,0.0526,0.092
11.102000,0.1036,0.0871,-0.0138,0.136
11.109000,0.2948,0.1863,-0.0014,0.349
11.112000,0.4940,0.2646,-0.2159,0.601
11.117000,0.6711,0.3287,-0.4370,0.866
11.124000,0.8053,0.4189,-0.4926,1.033
11.127000,0.9208,0.5111,-0.4453,1.143
11.132000,0.9703,0.4835,-0.4265,1.165
11.138000,0.9591,0.3695,-0.3907,1.100
11.154000,0.8944,0.2241,-0.2997,0.970
11.156000,0.8628,0.1883,-0.1368,0.894
11.156000,0.7779,0.1425,-0.0214,0.791
11.157000,0.6803,0.1321,0.0703,0.697
11.162000,0.7158,0.2692,0.1931,0.789
11.189000,0.6526,0.3864,0.2250,0.791
11.190000,0.5411,0.5097,0.2059,0.771
11.191000,0.4359,0.6583,0.1791,0.810
11.191000,0.3294,0.7942,0.1797,0.878
11.191000,0.2279,0.9034,0.2721,0.971
11.193000,0.2318,0.9216,0.4515,1.052
11.195000,0.1820,0.8230,0.5505,1.007
11.200000,0.0526,0.7084,0.7468,1.031
11.205000,0.0412,0.5760,0.8473,1.025
11.209000,0.0470,0.3852,0.8979,0.978
11.215000,0.1129,0.2534,1.2691,1.299
11.220000,0.0955,0.0635,1.2368,1.242
11.228000,0.1100,-0.1512,1.2199,1.234
11.230000,0.0277,-0.3070,1.1350,1.176
11.234000,0.0375,-0.3302,1.1061,1.155
11.239000,-0.0276,-0.3073,1.1326,1.174
11.244000,-0.1172,-0.2815,1.0349,1.079
11.248000,-0.1596,-0.1837,1.0606,1.088
11.259000,-0.1192,-0.0119,1.0969,1.103
11.260000,-0.0841,0.2287,1.0454,1.073
11.265000,-0.1326,0.4039,0.8557,0.956
11.285000,-0.1113,0.5445,0.7549,0.937
11.287000,0.0207,0.6435,0.6788,0.936
11.287000,0.2183,0.8272,0.5867,1.037
11.288000,0.2524,0.9828,0.5169,1.139
11.290000,0.2123,1.0388,0.5843,1.211
11.294000,0.1460,1.0311,0.7100,1.260
11.299000,0.1653,1.0148,0.9082,1.372
11.304000,0.0241,0.9209,1.0571,1.402
11.309000,-0.0846,0.7618,1.2073,1.430
11.313000,-0.2140,0.5668,1.2610,1.399
11.317000,-0.3075,0.3290,1.3161,1.391
11.323000,-0.3202,0.2063,1.3536,1.406
11.327000,-0.2628,0.1678,1.3560,1.391
11.331000,-0.4056,-0.0493,1.2660,1.330
11.337000,-0.3690,-0.3895,1.2679,1.377
11.342000,-0.3256,-0.6399,1.1672,1.370
11.346000,-0.4326,-0.8704,1.2510,1.584
11.359000,-0.2761,-1.0379,1.0321,1.490
11.360000,-0.1469,-1.0263,0.9931,1.436
11.362000,-0.0324,-0.9651,0.8494,1.286
11.382000,-0.0083,-0.9054,0.6883,1.137
11.382000,-0.0860,-0.8353,0.6153,1.041
11.383000,-0.1457,-0.6761,0.6255,0.933
11.383000,-0.1183,-0.5212,0.6658,0.854
11.389000,-0.0561,-0.3515,0.6314,0.725
11.390000,0.0344,-0.1744,0.5946,0.621
11.395000,0.0167,-0.0066,0.6723,0.672
11.401000,0.0304,0.0993,0.5830,0.592
11.407000,0.1567,0.1769,0.7862,0.821
11.409000,0.1957,0.1639,0.9380,0.972
11.414000,0.1430,-0.0445,0.9054,0.918
11.420000,0.0463,-0.2088,0.9921,1.015
11.425000,-0.0613,-0.1882,0.9185,0.940
11.429000,-0.2046,-0.0517,0.9041,0.928
11.435000,-0.2481,0.1098,0.7091,0.759
11.439000,-0.1566,0.2486,0.7084,0.767
11.444000,-0.2529,0.3864,0.6009,0.758
11.449000,-0.2246,0.5391,0.4603,0.744
11.454000,0.1182,0.6758,0.2638,0.735
11.459000,0.2294,0.7641,-0.0185,0.798
11.464000,0.1512,0.5591,-0.2773,0.642
11.483000,0.3197,0.6077,-0.4362,0.813
11.484000,0.3517,0.4447,-0.3254,0.654
11.484000,0.6030,0.8283,-1.0467,1.465
11.485000,0.4838,0.8765,-0.7880,1.274
11.489000,0.4195,0.7608,-0.9664,1.300
11.493000,0.5715,0.6598,-0.8501,1.218
11.498000,0.7425,0.9839,-0.8999,1.526
11.504000,0.9286,1.0323,-0.9336,1.673
11.508000,1.0196,0.8913,-0.8467,1.597
11.513000,1.0289,0.7480,-0.8386,1.524
11.519000,1.0729,0.7247,-0.8135,1.529
11.523000,1.1002,0.6736,-0.9433,1.598
11.527000,1.0774,0.6403,-0.9452,1.570
11.534000,0.9324,0.5823,-1.1964,1.625
11.538000,1.0327,0.8484,-1.5249,2.028
11.543000,1.0073,1.0777,-1.6608,2.221
11.547000,1.1623,1.7334,-2.5935,3.329
11.552000,1.3816,2.5478,-2.4935,3.823
11.557000,1.1653,1.1258,-1.6592,2.319
11.561000,0.9410,0.5729,-1.5402,1.894
11.569000,0.9958,0.4092,-0.9004,1.403
11.574000,0.7710,0.2638,-0.5567,0.987
11.576000,0.3519,0.1217,-0.2177,0.431
11.583000,-0.2733,-0.0678,0.2337,0.366
11.588000,-0.7538,-0.3499,0.6696,1.067
11.592000,-0.8956,-0.3587,0.9481,1.353
11.596000,-1.0012,-0.4980,1.1571,1.609
11.611000,-1.1963,-0.5118,1.4540,1.951
11.612000,-1.6434,-0.3226,1.6795,2.372
11.613000,-1.6573,0.0445,1.8080,2.453
11.633000,-1.4886,0.1710,1.1148,1.868
11.635000,-1.2515,0.0846,0.6293,1.403
11.635000,-0.9289,-0.0751,0.3944,1.012
11.636000,-0.7103,-0.2608,0.3131,0.819
11.636000,-0.5997,-0.4582,0.3287,0.823
11.639000,-0.2188,-0.3950,0.0699,0.457
11.645000,0.0053,-0.1146,-0.2805,0.303
11.649000,0.1255,0.2677,-0.3190,0.435
11.654000,0.0724,0.4914,-0.1996,0.535
11.661000,0.0271,0.5929,-0.2113,0.630
11.664000,0.0977,0.6177,-0.5586,0.839
11.669000,0.1662,0.4149,-0.6585,0.796
11.673000,0.1475,0.1351,-0.6428,0.673
11.678000,-0.0398,-0.1833,-0.4066,0.448
11.686000,-0.3948,-0.8048,-0.1938,0.917
11.695000,-0.4269,-0.2662,0.5098,0.716
11.696000,-0.8353,-0.6812,0.7849,1.333
11.702000,-0.6352,-0.7024,-0.0591,0.949
11.703000,-0.6185,0.0468,-0.3792,0.727
11.709000,-0.1968,0.4708,0.1270,0.526
11.714000,-0.1321,0.5272,-0.2516,0.599
11.717000,-0.0689,0.5363,-0.3880,0.665
11.722000,-0.0659,0.4021,-0.2517,0.479
11.734000,-0.0291,0.2514,-0.1227,0.281
11.734000,0.0269,0.1823,-0.0128,0.185
11.736000,0.0792,-0.0469,0.2795,0.294
11.741000,0.0410,-0.2063,0.1305,0.248
11.747000,0.0918,-0.1076,0.1729,0.223
11.752000,0.0402,-0.0258,0.2535,0.258
11.756000,-0.1514,0.0055,0.4774,0.501
11.761000,-0.3208,-0.1448,0.6603,0.748
11.768000,-0.2478,-0.1726,0.5465,0.624
11.770000,-0.0285,-0.1401,0.5142,0.534
11.775000,0.0671,-0.0642,0.4170,0.427
11.782000,0.0360,0.0308,0.3560,0.359
11.786000,0.1584,0.0634,0.5202,0.548
11.791000,0.1689,-0.0163,0.5027,0.531
11.797000,0.1104,-0.1892,0.5544,0.596
11.802000,-0.0393,-0.4333,0.6900,0.816
11.806000,0.2165,-0.1700,0.2075,0.345
11.810000,0.3591,0.0715,0.4118,0.551
11.816000,0.2960,-0.1484,0.4941,0.595
11.824000,0.3470,-0.2291,0.5411,0.682
11.825000,0.2974,-0.2187,0.5291,0.645
11.842000,0.2029,-0.2035,0.4533,0.537
11.843000,0.2471,-0.1931,0.7125,0.778
11.845000,0.2269,-0.2757,0.4656,0.587
11.845000,0.2401,-0.4204,0.3842,0.618
11.850000,0.2224,-0.2685,0.2575,0.433
11.854000,0.3056,-0.1791,0.2859,0.455
11.859000,0.4490,-0.1282,0.3165,0.564
11.863000,0.2578,-0.2280,0.2942,0.453
11.869000,0.0472,-0.0239,0.1317,0.142
11.873000,0.0436,0.1038,0.1468,0.185
11.881000,-0.1615,0.0928,0.2113,0.282
11.883000,-0.2999,0.0511,0.2910,0.421
11.889000,-0.1688,0.0527,0.1446,0.228
11.894000,-0.0482,0.1286,0.0392,0.143
11.900000,0.0502,0.2093,-0.0924,0.234
11.903000,0.0151,0.1608,-0.0875,0.184
11.907000,0.1376,0.0503,-0.0821,0.168
11.913000,0.1335,-0.0886,-0.1816,0.242
11.917000,0.2611,-0.2251,-0.0710,0.352
11.922000,0.1618,-0.3112,-0.0348,0.353
11.935000,0.1637,-0.2469,0.1184,0.319
11.936000,0.1870,-0.1539,0.2500,0.348
11.937000,-0.1416,-0.1994,1.0653,1.093
11.943000,0.1024,0.0351,-0.1721,0.203
11.953000,-0.0842,-0.1083,0.2859,0.317
11.957000,-0.1178,0.1763,0.2864,0.356
11.957000,-0.3073,0.4122,0.0499,0.517
11.964000,-0.4826,0.0637,-0.0869,0.494
11.966000,-0.5155,-0.1131,0.0402,0.529
11.971000,-0.2787,-0.1803,0.1917,0.383
11.975000,-0.0870,-0.1519,-0.0780,0.192
11.980000,0.1157,0.0462,-0.0818,0.149
11.986000,0.2532,0.3995,-0.8145,0.942
11.990000,0.4306,0.3940,-0.5771,0.821
11.996000,0.5642,0.4125,-0.4125,0.812
12.001000,0.6336,-0.0015,-1.2971,1.444
12.006000,0.6565,-0.0760,-0.8925,1.111
12.013000,0.7066,0.0360,-0.7223,1.011
12.015000,0.4708,-0.0196,-0.4545,0.655
12.021000,0.2190,-0.0607,-0.5045,0.553
12.026000,-0.0111,0.0059,-0.2771,0.277
12.031000,-0.1502,0.0199,0.1961,0.248
12.036000,-0.2200,-0.0306,0.2913,0.366
12.040000,-0.1635,0.0794,0.2073,0.276
12.059000,-0.1337,-0.0306,-0.3041,0.334
12.061000,-0.1548,-0.0613,-0.2888,0.333
12.062000,-0.3486,0.1448,0.1284,0.399
12.062000,-0.2519,0.2744,-0.1213,0.392
12.064000,-0.2464,-0.1599,-0.1412,0.326
12.069000,-0.2430,-0.2829,0.1020,0.387
12.073000,-0.1870,-0.2672,0.0468,0.329
12.079000,-0.2643,-0.2730,0.0731,0.387
12.083000,-0.3456,-0.3769,0.0825,0.518
12.087000,-0.3139,-0.2942,0.0421,0.432
12.094000,-0.3244,-0.3599,0.5060,0.701
12.098000,-0.2842,-0.1914,-0.2848,0.446
12.103000,-0.3194,-0.2192,-0.1069,0.402
12.108000,-0.4417,-0.1013,0.2570,0.521
12.113000,-0.4741,-0.1415,0.1932,0.531
12.118000,-0.4111,-0.1173,0.3660,0.563
12.123000,-0.7014,-0.3158,0.7779,1.094
12.129000,-0.7465,0.0404,0.3495,0.825
12.133000,-0.5618,0.0787,0.3819,0.684
12.137000,-0.2274,0.2299,-0.4996,0.595
12.144000,0.3800,0.2401,-0.0203,0.450
12.148000,0.4436,0.2098,-0.2037,0.531
12.153000,0.4548,0.2370,-0.1931,0.548
12.164000,0.4416,0.2140,-0.2969,0.574
12.165000,0.3446,0.2557,-0.3792,0.573
12.166000,0.4895,0.2137,-0.2729,0.600
12.170000,0.3092,-0.0432,-0.7430,0.806
12.179000,0.1815,-0.0058,-0.4602,0.495
12.185000,0.0538,-0.3220,0.2161,0.392
12.186000,-0.0831,-0.2363,-0.7380,0.779
12.195000,-0.4207,-0.4374,-0.0237,0.607
12.196000,-0.6731,-0.5448,0.1381,0.877
12.203000,-0.5941,-0.5228,0.1666,0.809
12.207000,-0.4562,-0.4528,0.0833,0.648
12.211000,-0.2954,-0.4235,-0.1357,0.534
12.215000,-0.0037,-0.2914,-0.1270,0.318
12.221000,0.0683,-0.2669,-0.2153,0.350
12.227000,0.0088,-0.1732,-0.2678,0.319
12.230000,-0.1505,-0.3401,-0.2583,0.453
12.235000,-0.1731,-0.1627,-0.1789,0.297
12.239000,0.0067,0.2011,0.2956,0.358
12.245000,-0.1085,0.0124,0.0904,0.142
12.249000,-0.1761,-0.3001,0.1274,0.371
12.254000,0.0551,-0.1773,0.0124,0.186
12.259000,0.1444,-0.1095,-0.2960,0.347
12.264000,0.0160,-0.1421,-0.2049,0.250
12.269000,-0.2272,-0.0671,-0.2838,0.370
12.275000,-0.2612,-0.0326,-0.3244,0.418
12.281000,-0.2650,-0.0866,-0.1998,0.343
12.284000,-0.4457,-0.2885,0.0444,0.533
12.288000,-0.3640,-0.4542,-0.1774,0.609
12.298000,-0.1557,-0.2302,0.0767,0.288
12.299000,-0.0027,-0.2383,-0.0433,0.242
12.304000,-0.1553,-0.5523,-0.1105,0.584
12.309000,-0.0090,-0.3018,-0.1249,0.327
12.314000,0.0054,-0.2596,-0.2140,0.336
12.318000,-0.1282,-0.4277,-0.3225,0.551
12.323000,0.0252,-0.4187,-0.1462,0.444
12.328000,-0.0176,-0.3069,-0.1494,0.342
12.333000,-0.0176,-0.3913,-0.1194,0.409
12.339000,-0.0263,-0.2628,0.0133,0.264
12.343000,-0.1663,-0.2325,0.2513,0.381
12.348000,-0.1319,-0.4173,0.2218,0.491
12.353000,-0.0213,-0.7212,0.1049,0.729
12.358000,0.4714,-0.8431,0.2854,1.007
12.363000,0.4045,-1.0890,0.2227,1.183
12.367000,0.5079,-0.8137,0.6465,1.157
12.374000,0.5567,-1.0334,0.6642,1.349
12.382000,0.1163,-3.0403,1.1219,3.243
12.383000,-0.1684,-0.1575,0.2138,0.314
12.386000,0.3996,1.1802,0.3227,1.287
12.391000,0.0095,1.4958,-0.6039,1.613
12.396000,-0.1324,1.3640,-0.6563,1.520
12.400000,-0.1327,0.9170,-0.8122,1.232
12.410000,-0.0521,0.4826,-0.5865,0.761
12.411000,0.3313,0.4000,-0.2932,0.596
12.416000,0.3724,0.1550,-0.3099,0.509
12.420000,0.3085,0.0179,-0.0021,0.309
12.425000,0.2418,-0.1118,-0.0676,0.275
12.429000,0.2134,-0.1290,-0.1386,0.285
12.434000,-0.0423,-0.5739,-0.2726,0.637
12.440000,0.0793,-0.1985,-0.0444,0.218
12.445000,-0.3373,-0.2203,-0.2475,0.473
12.449000,-0.7281,-0.0771,-0.3055,0.793
12.456000,-0.6584,-0.1037,-0.3979,0.776
12.459000,-0.5634,-0.3477,-0.3809,0.764
12.463000,-0.3641,-0.7060,-0.8663,1.175
12.468000,-0.3000,-0.2656,-0.0250,0.401
12.474000,-0.3609,-0.2464,0.4124,0.601
12.478000,-0.2910,-0.5736,0.4326,0.775
12.483000,-0.1476,-0.6304,0.5498,0.849
12.490000,-0.1051,-0.2592,0.6536,0.711
12.493000,-0.1490,-0.4263,0.4423,0.632
12.498000,0.0700,-0.8130,0.5740,0.998
12.503000,0.2790,-0.4942,0.5443,0.786
12.509000,0.3992,-0.1256,0.3025,0.516
12.515000,0.3688,-0.2880,0.1280,0.485
12.518000,0.5561,0.0062,-0.1417,0.574
12.542000,0.8225,0.1088,-0.2156,0.857
12.542000,0.5183,-0.5343,-0.0869,0.749
12.543000,0.6811,0.1927,0.1401,0.722
12.543000,0.3283,0.3262,0.2426,0.523
12.543000,0.2301,0.0125,0.1084,0.255
12.548000,0.2160,-0.1908,0.0508,0.293
12.552000,0.6747,0.2108,0.0695,0.710
12.558000,0.3880,0.1673,-0.0004,0.423
12.561000,0.2983,0.6066,-0.0796,0.681
12.566000,-0.0275,-0.1375,-0.0610,0.153
12.571000,-0.0736,-0.1471,-0.2955,0.338
12.576000,0.0301,0.0346,-0.0139,0.048
12.581000,0.2648,0.7084,0.4202,0.865
12.587000,-0.0168,-0.3393,0.1373,0.366
12.591000,0.1437,-0.2601,0.1156,0.319
12.596000,0.0167,0.2420,0.0315,0.245
12.600000,-0.2540,0.5021,-0.1390,0.580
12.606000,-0.3360,0.0378,-0.2832,0.441
12.611000,-0.3833,0.1262,-0.4039,0.571
12.616000,-0.6828,0.4965,-0.3460,0.912
12.623000,-0.8424,0.1423,-0.2742,0.897
12.626000,-0.5234,0.3167,-0.1282,0.625
12.631000,-0.3998,0.0584,-0.3674,0.546
12.635000,-0.4192,-0.5772,-0.7389,1.027
12.640000,0.5277,0.7908,-0.0259,0.951
12.646000,0.1217,0.4030,-0.0931,0.431
12.651000,0.1277,-0.3453,-0.1675,0.404
12.667000,0.3816,-0.3278,0.1114,0.515
12.671000,-0.0459,-0.6712,0.1676,0.693
12.674000,0.0791,-0.2518,0.0517,0.269
12.675000,0.4138,0.0572,-0.0603,0.422
12.676000,0.1706,0.4352,0.1460,0.490
12.689000,0.1030,0.1482,0.1016,0.207
12.690000,0.3560,0.5810,0.1200,0.692
12.690000,-0.1243,0.5089,-0.0385,0.525
12.693000,-0.3486,-0.2967,0.0617,0.462
12.698000,-0.0242,0.2369,0.1287,0.271
12.703000,0.0454,0.7413,0.3301,0.813
12.708000,-0.1706,0.1098,0.3894,0.439
12.713000,-0.6550,-0.7001,-0.1554,0.971
12.718000,-0.8252,0.6946,0.3585,1.137
12.723000,-0.5689,1.7887,2.2417,2.924
12.735000,-0.7010,0.7521,-0.0213,1.028
12.736000,-0.7181,0.7516,-0.0197,1.040
12.738000,-0.4242,0.1585,0.0991,0.464
12.743000,-0.3904,0.4888,0.0030,0.626
12.748000,-0.2807,0.3574,-0.2290,0.509
12.762000,-0.2138,-0.0246,-0.9657,0.989
12.764000,0.0971,-0.5328,-1.3379,1.443
12.764000,0.4750,-0.5454,-1.4284,1.601
12.788000,0.4978,-0.5890,-1.4479,1.641
12.789000,0.8136,-0.4676,-1.3440,1.639
12.789000,0.5935,-0.2961,-0.7743,1.020
12.789000,0.4113,0.1023,-0.2549,0.495
12.790000,0.3381,-0.5944,-0.5733,0.892
12.791000,0.3532,0.3277,-0.6921,0.843
12.796000,0.9211,-0.0155,-0.1127,0.928
12.801000,1.5779,0.0003,0.1143,1.582
12.808000,1.5406,0.4150,0.2416,1.614
12.810000,0.7704,0.7167,-0.0461,1.053
12.817000,0.7044,1.2975,1.0630,1.819
12.820000,0.6949,2.0351,1.1892,2.457
12.825000,0.4886,1.9925,0.8961,2.239
12.830000,0.6649,3.0011,0.9465,3.216
12.837000,0.2485,1.1331,1.1728,1.650
12.840000,0.0911,0.8684,0.8590,1.225
12.845000,0.0818,0.6877,0.5762,0.901
12.850000,0.2485,0.7557,0.4362,0.907
12.855000,0.5010,0.6395,0.4575,0.932
12.859000,0.7033,0.3442,0.4967,0.927
12.865000,0.7173,-0.0225,0.1952,0.744
12.869000,0.6057,-0.2359,0.3121,0.721
12.874000,0.5288,-0.3511,0.4193,0.761
12.879000,0.4554,-0.4113,0.3283,0.696
12.887000,0.1555,-0.4547,-0.0212,0.481
12.888000,0.2944,-0.1347,-1.3343,1.373
12.894000,0.0897,-0.5535,-0.9990,1.146
12.901000,0.0535,-0.5607,-0.0682,0.567
12.903000,-0.0711,-0.3838,-0.2021,0.440
12.910000,-0.1402,-0.2000,-1.3976,1.419
12.914000,0.1925,-0.1047,-2.4270,2.437
12.920000,0.1547,-0.0500,-0.8077,0.824
12.925000,0.1298,-0.4375,-1.8926,1.947
12.929000,0.2580,-0.1433,-1.2177,1.253
12.933000,-0.1055,-0.0430,0.3820,0.399
12.938000,-0.1457,-0.2128,0.6614,0.710
12.943000,-0.5752,-0.4088,-0.3017,0.767
12.947000,-0.8258,-0.2985,0.2678,0.918
12.959000,-1.1064,-0.3245,-0.2364,1.177
12.960000,-0.7723,-0.2022,-0.4010,0.893
12.963000,-0.7317,-0.3643,0.2229,0.847
12.967000,-0.6324,-0.4999,-0.1575,0.821
12.972000,-0.5104,-0.6401,-0.1077,0.826
12.977000,-0.3199,-0.3546,0.0518,0.480
12.984000,-0.2067,-0.2965,-0.1043,0.376
12.986000,-0.0703,-0.1955,0.7246,0.754
12.992000,-0.1731,-0.3503,0.6859,0.789
12.997000,0.0871,-0.2349,0.4021,0.474
13.001000,0.1294,-0.1316,0.1646,0.247
13.008000,0.1597,-0.0429,0.4678,0.496
13.013000,0.0441,-0.0618,0.2887,0.299
13.019000,-0.1099,-0.0544,0.2823,0.308
13.021000,0.0634,-0.0661,0.2284,0.246
13.026000,0.0024,-0.0731,0.1035,0.127
13.030000,-0.1087,-0.1040,-0.0187,0.152
13.037000,-0.2581,-0.0631,-0.0330,0.268
13.041000,-0.1494,-0.0462,0.1776,0.237
13.046000,0.1047,-0.0389,0.1803,0.212
13.051000,0.3063,-0.0101,0.2819,0.416
13.055000,0.3481,0.0185,0.1116,0.366
13.060000,0.3546,-0.0007,0.1092,0.371
13.064000,0.2874,-0.0510,0.2526,0.386
13.069000,0.1224,-0.0534,0.2695,0.301
13.073000,0.0530,0.0206,0.2654,0.271
13.079000,0.1483,0.0682,0.3237,0.363
13.085000,0.0594,0.0417,0.1315,0.150
13.090000,-0.1919,-0.0829,-0.0054,0.209
13.095000,-0.5223,-0.2072,-0.1158,0.574
13.099000,-0.7269,-0.2214,-0.0182,0.760
13.104000,-0.6122,-0.1423,-0.2960,0.695
13.109000,-0.3767,-0.1063,-0.4303,0.582
13.115000,-0.4288,-0.1085,-0.7085,0.835
13.119000,-0.1039,0.0542,-0.1602,0.198
13.124000,0.2181,0.0733,-0.3102,0.386
13.128000,0.0332,-0.0438,-0.1876,0.195
13.146000,-0.3787,-0.1559,0.2837,0.498
13.147000,-0.3652,-0.1485,0.2600,0.472
13.148000,0.1209,-0.1099,-0.1603,0.229
13.151000,0.6854,0.0552,-0.1667,0.708
13.154000,0.7553,0.0481,-0.1520,0.772
13.162000,0.5369,-0.0069,-0.0848,0.544
13.174000,0.3196,-0.0164,0.1041,0.337
13.175000,0.0981,-0.0402,0.0801,0.133
13.175000,-0.0728,-0.1524,0.1137,0.204
13.177000,-0.2054,-0.1713,-0.0127,0.268
13.182000,-0.0872,-0.1137,0.0069,0.143
13.186000,0.1287,-0.1136,-0.0617,0.182
13.193000,0.0864,-0.1516,-0.0943,0.198
13.199000,-0.0347,-0.1634,0.0043,0.167
13.203000,-0.1269,-0.2874,0.1411,0.344
13.206000,-0.2930,-0.2225,0.2132,0.425
13.211000,-0.1414,-0.0980,0.1949,0.260
13.217000,-0.0047,-0.1026,0.0836,0.132
13.222000,-0.0092,-0.1335,0.1232,0.182
13.227000,-0.0762,-0.0975,0.1413,0.188
13.236000,0.0096,-0.0592,0.0688,0.091
13.237000,0.1334,0.0413,-0.0418,0.146
13.244000,0.2093,0.0747,-0.1569,0.272
13.245000,0.2065,0.0794,-0.2291,0.318
13.257000,0.4814,0.0578,-0.3445,0.595
13.258000,0.2047,0.0960,-0.2524,0.339
13.260000,0.1531,0.1174,-0.0672,0.204
13.270000,0.2141,0.0264,-0.2024,0.296
13.272000,0.2204,0.0335,-0.0723,0.234
13.275000,0.2053,0.0502,-0.1002,0.234
13.282000,0.3314,0.0142,0.0032,0.332
13.284000,0.3191,-0.0121,-0.0872,0.331
13.290000,0.3073,-0.0002,-0.1250,0.332
13.294000,0.2004,-0.0862,-0.1080,0.243
13.299000,0.1535,-0.0838,-0.0099,0.175
13.304000,0.1999,-0.0766,-0.0602,0.222
13.309000,0.1415,-0.1004,-0.0841,0.193
13.314000,0.2601,-0.2007,-0.1057,0.345
13.319000,-0.0604,-0.2842,-0.0582,0.296
13.323000,-0.2370,0.0650,0.0536,0.252
13.329000,0.0352,0.0195,0.0916,0.100
13.334000,0.1421,-0.1384,0.0364,0.202
13.338000,0.3015,-0.0498,0.0841,0.317
13.343000,0.2507,-0.0307,0.0386,0.256
13.348000,0.2145,0.0433,0.0386,0.222
13.353000,0.1713,0.0217,-0.1456,0.226
13.358000,0.1544,-0.0047,-0.0166,0.155
13.363000,0.2070,0.0334,-0.1316,0.248
13.368000,0.2384,0.0739,-0.3711,0.447
13.373000,0.0597,0.0522,-0.1159,0.140
13.386000,-0.0136,0.0139,-0.0903,0.092
13.388000,-0.1084,-0.0245,-0.1197,0.163
13.390000,-0.2535,-0.0245,-0.1155,0.280
13.392000,-0.1741,-0.0293,-0.2068,0.272
13.411000,-0.0665,-0.0389,-0.2122,0.226
13.413000,-0.1073,-0.1010,-0.1628,0.220
13.413000,-0.1912,-0.1319,-0.0180,0.233
13.413000,-0.2299,-0.1581,0.0192,0.280
13.416000,-0.2284,-0.1865,0.0470,0.299
13.420000,-0.1316,-0.1672,-0.0281,0.215
13.426000,0.0005,-0.1143,0.0136,0.115
13.431000,0.0491,-0.1046,-0.0590,0.130
13.436000,0.1100,-0.1140,-0.0832,0.179
13.440000,0.2112,-0.0422,-0.0912,0.234
13.446000,0.2023,-0.0445,-0.0587,0.215
13.451000,0.2161,-0.0655,-0.0690,0.236
13.455000,0.2726,-0.0151,-0.0104,0.273
13.460000,0.1819,-0.0173,-0.0566,0.191
13.467000,0.2014,-0.0029,-0.1050,0.227
13.472000,0.3773,0.0707,0.0580,0.388
13.475000,0.4600,0.0487,-0.0200,0.463
13.480000,0.4642,0.0032,-0.2348,0.520
13.487000,0.5298,0.0199,-0.0428,0.532
13.490000,0.2952,-0.0160,-0.0305,0.297
13.500000,0.1816,-0.0373,-0.0680,0.197
13.502000,0.3279,0.1338,-0.0720,0.361
13.536000,0.1224,0.0163,-0.1757,0.215
13.537000,0.4945,0.2743,0.2141,0.605
13.538000,0.5758,0.1543,-0.0655,0.600
13.538000,0.3617,-0.1184,-0.3781,0.536
13.539000,0.2150,-0.0754,-0.1839,0.293
13.540000,0.4511,0.1396,-0.0501,0.475
13.540000,0.1310,0.1680,-0.3205,0.385
13.541000,-0.0450,0.1533,-0.3398,0.376
13.547000,-0.5056,-0.1528,-0.4523,0.695
13.548000,-0.7014,-0.2674,-0.2185,0.782
13.554000,-0.0281,0.3065,0.2921,0.424
13.558000,0.3677,0.2224,0.0162,0.430
13.562000,0.5632,-0.0264,-0.1992,0.598
13.568000,0.6635,-0.0695,-0.2208,0.703
13.572000,1.2287,0.3034,0.1491,1.274
13.578000,1.2911,0.1547,-0.1170,1.306
13.583000,1.2934,-0.0750,-0.1079,1.300
13.587000,1.3340,0.0469,-0.1661,1.345
13.592000,1.0567,0.0778,0.0816,1.063
13.597000,0.7435,-0.0204,-0.1322,0.755
13.602000,0.2264,-0.1327,-0.0852,0.276
13.609000,0.2050,-0.0393,0.2580,0.332
13.613000,-0.4659,-0.3475,0.0420,0.583
13.617000,-0.8071,-0.5190,0.1178,0.967
13.622000,-1.1588,-0.7716,0.0409,1.393
13.632000,-1.2112,-0.4956,0.2510,1.333
13.633000,-1.2489,-0.5377,0.3153,1.396
13.637000,-1.5182,-0.5727,0.0165,1.623
13.655000,-1.3504,-0.5001,0.2441,1.461
13.657000,-1.0204,-0.3774,0.2973,1.128
13.658000,-0.5966,-0.3576,0.3434,0.776
13.660000,-0.2892,-0.4455,-0.0643,0.535
13.663000,0.2582,-0.2297,-0.0129,0.346
13.665000,0.2292,-0.1981,0.5568,0.634
13.670000,0.2867,0.0508,0.0246,0.292
13.676000,0.1158,0.0796,-0.1935,0.239
13.680000,-0.1309,0.1347,-0.2347,0.301
13.685000,-0.5834,-0.3289,-0.5700,0.879
13.689000,-0.6091,-0.0654,-0.1358,0.627
13.694000,-0.6120,-0.1010,0.1904,0.649
13.699000,-0.7111,-0.1294,-0.0858,0.728
13.704000,-0.9835,-0.1387,-0.2015,1.013
13.708000,-1.0494,0.0050,-0.1880,1.066
13.714000,-0.6989,-0.0116,0.0262,0.700
13.720000,-0.3021,-0.0665,-0.1730,0.354
13.729000,-0.0401,-0.0354,-0.1784,0.186
13.732000,0.0303,-0.0592,-0.1742,0.186
13.733000,-0.0617,-0.1618,-0.0698,0.187
13.738000,0.1377,-0.2596,0.0701,0.302
13.744000,0.0146,-0.1708,-0.0484,0.178
13.748000,-0.1302,-0.1968,0.1321,0.270
13.752000,-0.1127,-0.1296,0.2887,0.336
13.759000,-0.0286,-0.1127,-0.0231,0.119
13.763000,0.1675,0.0070,0.0358,0.171
13.767000,0.2774,-0.0074,0.1785,0.330
13.777000,0.3708,0.0237,0.0917,0.383
13.778000,0.3427,-0.0385,0.0843,0.355
13.783000,0.7934,-0.0839,0.1847,0.819
13.786000,0.9754,0.0716,-0.3794,1.049
13.791000,0.7096,0.3369,-0.3578,0.863
13.796000,0.5070,0.3652,-0.0853,0.631
13.802000,0.2121,0.2597,-0.1192,0.356
13.806000,-0.2475,0.0874,-0.3013,0.400
13.811000,-0.3127,0.0875,0.0352,0.327
13.816000,-0.3669,0.1042,-0.2044,0.433
13.822000,-0.2251,0.1065,-0.1396,0.285
13.828000,-0.3353,0.0466,-0.1180,0.358
13.830000,-0.1354,0.0729,0.0352,0.158
13.835000,0.0570,0.0465,-0.0217,0.077
13.841000,0.1604,0.0058,-0.0354,0.164
13.846000,0.2045,-0.1806,-0.0824,0.285
13.851000,0.6126,-0.1876,0.0357,0.642
13.855000,0.3141,-0.1372,-0.1881,0.391
13.860000,0.1789,-0.2756,0.3241,0.461
13.864000,0.0081,-0.2059,0.3631,0.417
13.869000,-0.1523,-0.0862,-0.0466,0.181
13.874000,-0.4492,-0.3466,-0.1404,0.584
13.879000,-0.4863,-0.1359,0.4447,0.673
13.884000,-0.5100,-0.1048,0.1909,0.555
13.889000,-0.4224,-0.1335,-0.3444,0.561
13.894000,-0.2282,-0.1717,-0.1007,0.303
13.898000,0.0030,-0.0712,0.1562,0.172
13.907000,0.2153,-0.0927,0.3492,0.421
13.909000,0.0260,-0.2649,0.3353,0.428
13.913000,-0.0888,-0.2863,0.2528,0.392
13.918000,0.2502,-0.4010,0.2806,0.550
13.924000,0.7528,-0.3243,0.6292,1.033
13.930000,-0.0907,-0.2046,-0.3845,0.445
13.934000,-0.2240,-0.1257,0.0056,0.257
13.940000,-0.1263,-0.0326,-0.1761,0.219
13.944000,-0.0585,-0.1260,-0.1046,0.174
13.949000,0.5208,-0.2934,0.2867,0.663
13.954000,0.3816,-0.1785,0.0226,0.422
13.965000,0.3028,-0.0876,0.1626,0.355
13.966000,0.2747,-0.0494,0.1209,0.304
13.970000,0.3660,-0.0161,0.2894,0.467
13.973000,0.3831,0.0316,0.3260,0.504
13.979000,0.7395,0.1844,0.1262,0.772
13.986000,0.1643,0.3967,-0.4460,0.619
13.989000,-0.1636,0.1739,-0.3939,0.461
13.992000,-0.1354,0.2190,-0.4737,0.539
13.996000,0.0382,0.3262,-0.4030,0.520
14.003000,0.1281,0.3735,-0.3135,0.504
14.008000,0.0389,0.1053,-0.2575,0.281
14.012000,0.0525,0.2629,-0.2804,0.388
14.016000,-0.1609,0.2744,-0.3511,0.474
14.021000,-0.2097,0.1402,-0.3428,0.426
14.025000,-0.1800,0.0348,-0.0792,0.200
14.031000,0.1959,-0.0490,0.1486,0.251
14.040000,0.1320,-0.1159,0.2645,0.317
14.041000,-0.2826,-0.0012,-0.2312,0.365
14.045000,-0.4395,-0.1662,-0.0716,0.475
14.050000,-0.3394,-0.1399,0.2693,0.455
14.055000,-0.3235,-0.1375,-0.1738,0.392
14.060000,-0.4229,-0.2809,0.1388,0.526
14.065000,-0.4820,-0.3070,0.2122,0.610
14.070000,-0.3889,-0.3236,0.1089,0.518
14.075000,-0.4612,-0.3761,0.2427,0.643
14.079000,-0.4241,-0.4883,0.4078,0.765
14.084000,-0.0530,-0.3685,0.1738,0.411
14.089000,0.1003,-0.3039,0.2150,0.385
14.094000,0.1601,-0.1939,0.1488,0.292
14.099000,0.3035,-0.1773,0.3097,0.468
14.104000,0.2869,-0.1152,0.3606,0.475
14.109000,0.1581,-0.1274,0.0149,0.204
14.113000,0.2061,-0.0320,0.1472,0.255
14.118000,0.5002,-0.2617,0.4753,0.738
14.123000,0.5511,0.2378,0.0840,0.606
14.128000,-0.1571,0.3400,-0.5721,0.684
14.133000,0.2364,0.1960,-0.1118,0.327
14.138000,0.1034,0.1381,-0.0512,0.180
14.142000,0.1046,0.1376,-0.2128,0.274
14.147000,0.2110,0.1467,-0.2213,0.339
14.157000,0.1957,0.1798,-0.0794,0.277
14.160000,0.1593,0.0766,-0.1478,0.230
14.162000,0.1062,0.0332,0.0611,0.127
14.172000,0.2040,-0.0340,0.1149,0.237
14.173000,0.2252,-0.2158,-0.1735,0.357
14.178000,0.4671,-0.0748,-0.0407,0.475
14.183000,0.1127,-0.2923,0.2716,0.415
14.188000,-0.3342,0.1834,-0.1690,0.417
14.193000,-0.2987,-0.0464,-0.0862,0.314
14.197000,-0.0757,-0.2306,0.0104,0.243
14.202000,-0.0228,-0.2185,0.1378,0.259
14.207000,-0.1063,-0.2208,0.3320,0.413
14.212000,0.2449,-1.2818,0.8609,1.563
14.217000,-0.2089,-0.5731,0.0110,0.610
14.223000,-0.5306,0.8112,-0.4656,1.075
14.227000,-0.2173,-0.1914,0.0208,0.290
14.231000,-0.0271,-0.2845,-0.0792,0.297
14.236000,0.0837,-0.5616,0.0808,0.574
14.241000,-0.5204,-2.1790,0.8313,2.390
14.245000,-0.1329,0.6435,-0.1845,0.682
14.252000,0.0367,1.3331,-0.2219,1.352
14.258000,0.7176,0.5067,-0.3457,0.944
14.260000,-0.1645,-0.1131,-0.4438,0.487
14.266000,-0.7979,-1.5685,0.0147,1.760
14.270000,-0.7257,-1.9707,-0.2251,2.112
14.274000,-0.4715,1.1335,-1.0606,1.622
14.280000,0.7050,1.4210,-0.8787,1.813
14.284000,0.7989,0.2767,-0.9636,1.282
14.290000,0.4185,-0.1515,-0.3490,0.566
14.294000,0.0557,0.2717,-0.2422,0.368
14.306000,0.0732,-0.1087,-0.3868,0.408
14.307000,-0.0002,-0.4671,-0.2733,0.541
14.312000,-0.2172,-0.1200,-0.2922,0.383
14.313000,0.0674,0.2983,0.0732,0.314
14.319000,-0.2794,-0.8803,-0.2069,0.946
14.324000,-0.4302,-0.9318,-0.1572,1.038
14.329000,0.2477,0.2285,-0.2971,0.449
14.333000,0.2253,0.2903,0.2172,0.427
14.339000,-0.0641,-0.3816,-0.0542,0.391
14.344000,0.0002,0.2307,-0.1291,0.264
14.348000,-0.9498,-1.5500,-0.1923,1.828
14.353000,0.2284,0.4451,-0.2761,0.571
14.358000,0.5386,0.2247,0.9788,1.140
14.362000,-0.3870,-1.0279,-0.3928,1.166
14.368000,-0.3040,-0.6394,0.0551,0.710
14.372000,-0.9419,-1.4153,-0.6790,1.831
14.377000,-0.3023,0.0611,0.0461,0.312
14.383000,-0.6940,-1.1219,-0.9652,1.635
14.387000,-0.4492,-0.4368,-1.5406,1.663
14.392000,-1.0667,-0.7848,-0.4932,1.413
14.397000,0.5612,-1.5506,2.3113,2.839
14.402000,3.2813,0.0241,2.3528,4.038
14.406000,2.3357,-0.2434,0.0014,2.348
14.412000,1.8994,0.5529,0.4720,2.034
14.425000,1.6134,0.5691,-0.0108,1.711
14.426000,0.7909,-0.3132,-0.5506,1.013
14.428000,1.5547,0.7700,-0.1322,1.740
14.431000,1.8740,0.9437,-0.0134,2.098
14.436000,1.0071,0.2785,-0.4682,1.145
14.441000,0.8483,-0.1446,-0.0243,0.861
14.449000,0.4430,0.0113,0.0510,0.446
14.450000,0.0631,-0.1006,-0.4213,0.438
14.457000,0.1929,-0.6664,0.4734,0.840
14.460000,-0.3890,-1.3534,0.5452,1.510
14.466000,-0.3234,-1.4707,-0.6502,1.640
14.470000,0.0610,-1.1193,0.2097,1.140
14.474000,-0.0831,-1.6240,0.4449,1.686
14.480000,0.0353,-0.2041,0.3240,0.385
14.486000,1.0456,-0.5474,-0.1364,1.188
14.489000,0.5152,-0.4240,0.1943,0.695
14.494000,0.6186,-0.2722,0.0850,0.681
14.500000,0.7100,-0.4430,-0.0913,0.842
14.504000,0.2384,-0.1477,0.1126,0.302
14.509000,0.5137,0.0877,-0.4199,0.669
14.515000,0.6102,-0.8841,0.0754,1.077
14.519000,0.2725,-0.7409,0.0683,0.792
14.524000,0.0552,-1.0829,-0.0323,1.085
14.529000,0.5307,-1.4890,0.4552,1.645
14.536000,-0.1051,-0.7330,-0.7835,1.078
14.539000,-0.8099,-1.6532,-0.5852,1.932
14.544000,-0.5425,-1.8960,-0.2706,1.991
14.564000,-0.2138,-1.3021,0.7126,1.500
14.565000,0.4873,-2.1668,0.4622,2.269
14.567000,-0.7364,-0.9488,-0.5991,1.342
14.567000,-0.4896,-0.2437,-1.6243,1.714
14.568000,0.7490,-0.7510,-0.4114,1.138
14.573000,-0.0139,0.9482,-0.1132,0.955
14.577000,0.7093,-0.0122,-0.7501,1.032
14.589000,0.0065,-0.5433,0.6661,0.860
14.590000,-0.1654,0.0876,-0.7313,0.755
14.592000,0.8953,0.3664,-0.3494,1.029
14.597000,0.9242,1.8400,-0.2981,2.081
14.603000,1.3697,2.2795,-0.3064,2.677
14.606000,0.8443,1.4711,0.4339,1.751
14.614000,0.6627,1.3735,0.1447,1.532
14.617000,0.1720,0.7815,0.8600,1.175
14.621000,-0.8524,1.0004,0.2975,1.348
14.626000,0.0931,0.8605,-0.3880,0.949
14.633000,0.4762,0.2191,0.3443,0.627
14.638000,0.0144,0.5823,-0.2619,0.639
14.643000,-0.5157,1.0838,0.0360,1.201
14.647000,-0.5513,-0.4204,0.2237,0.729
14.653000,-1.2422,-0.7995,0.7052,1.637
14.656000,-1.4049,-1.2308,0.8980,2.072
14.665000,-1.4196,-1.7144,-0.0194,2.226
14.669000,-1.7656,-0.0492,-0.7997,1.939
14.671000,-0.5705,1.0331,-0.0651,1.182
14.676000,0.7305,-0.8374,-0.2784,1.146
14.695000,-1.1855,-0.2869,1.0168,1.588
14.696000,-0.8537,-0.2200,-0.3814,0.961
14.702000,-0.4242,0.0306,-0.1295,0.445
14.703000,-0.3242,-0.2616,0.0479,0.419
14.703000,-0.7997,-0.1952,-0.4636,0.945
14.713000,-0.5028,1.0205,0.1961,1.154
14.714000,-0.4520,0.2846,-0.0743,0.539
14.714000,-0.9298,-1.5905,1.4940,2.372
14.720000,-2.4332,-0.6509,-0.7345,2.624
14.724000,-1.9674,-1.0826,-0.6351,2.334
14.730000,-2.2960,-1.3278,0.2164,2.661
14.734000,-2.8790,-1.0019,-0.4691,3.084
14.740000,-0.0596,3.4336,-0.5109,3.472
14.745000,2.1842,1.8438,0.5800,2.917
14.748000,-0.1530,2.2351,-1.3360,2.608
14.753000,-0.0845,1.9209,-0.5681,2.005
14.758000,0.5983,1.1939,0.1258,1.341
14.764000,-0.3979,0.5420,-0.3729,0.769
14.768000,0.2509,0.2230,0.5779,0.668
14.773000,0.3263,-0.9679,1.3953,1.729
14.786000,-0.5630,0.0148,-0.3954,0.688
14.787000,0.3498,1.2544,-0.7719,1.514
14.799000,1.0614,0.4947,0.8365,1.439
14.800000,-0.0521,-0.3094,1.0529,1.099
14.800000,-0.8762,-0.0420,0.2165,0.904
14.802000,-0.7621,0.0886,-0.3247,0.833
14.807000,-0.9127,0.4341,-0.8520,1.322
14.812000,-0.9501,0.4686,-0.2975,1.100
14.818000,-1.7373,-0.3407,-0.0072,1.770
14.822000,-2.8399,-1.1636,-0.0777,3.070
14.827000,-3.0549,-1.5031,0.1776,3.409
14.831000,-2.8829,-1.5726,0.1230,3.286
14.836000,-1.6410,-0.2825,-0.2275,1.681
14.842000,-0.5327,0.3845,-0.3361,0.738
14.846000,-0.3035,0.3983,-0.0121,0.501
14.851000,-0.2307,0.3740,0.6468,0.782
14.855000,-0.1631,0.9375,0.4007,1.033
14.860000,-0.4082,0.7525,0.6958,1.103
14.865000,-0.8900,0.4314,1.1693,1.531
14.870000,-0.7463,0.7678,1.3026,1.686
14.879000,-1.2592,0.2313,1.1324,1.709
14.880000,-1.2163,0.5940,0.8330,1.589
14.885000,-1.0361,0.6359,0.9304,1.531
14.889000,-0.5544,0.7136,0.7428,1.170
14.895000,-0.1603,0.6361,0.4009,0.769
14.900000,0.9358,1.0630,0.0772,1.418
14.904000,1.2768,0.8111,-0.4563,1.580
14.913000,2.5965,1.0735,-0.5072,2.855
14.914000,3.6944,1.3863,-0.8892,4.045
14.919000,5.4764,2.1936,-0.7040,5.941
14.924000,7.2540,1.6643,-2.2054,7.762
14.930000,8.2506,-0.4937,-4.7335,9.525
14.933000,1.3313,0.9769,0.4172,1.703
14.939000,-3.1465,-0.2215,1.2150,3.380
14.944000,-1.5546,-0.6251,-0.0821,1.678
14.948000,0.7741,-0.0435,-0.9832,1.252
14.953000,0.5489,0.1287,-0.9261,1.084
14.959000,-0.2037,-0.0504,0.0878,0.227
14.963000,-0.4179,-0.3034,0.2952,0.595
14.968000,-0.3217,-0.2431,0.2475,0.473
14.972000,-0.1089,-0.2164,0.2076,0.319
14.978000,-0.1262,-0.2328,0.2424,0.359
14.982000,0.6117,-0.2516,-0.1862,0.687
14.987000,1.0942,-0.2177,-0.5813,1.258
14.994000,0.5211,-0.0858,-0.1147,0.540
14.997000,-0.3877,-0.3220,0.2459,0.561
15.003000,-0.5261,-0.4051,0.1406,0.679
15.010000,-0.1323,-0.2180,-0.1725,0.308
15.013000,0.0697,-0.0669,-0.0865,0.130
15.017000,0.0660,-0.1096,-0.1801,0.221
15.022000,-0.0236,-0.1307,-0.1305,0.186
15.032000,-0.4192,-0.1063,0.3706,0.570
15.033000,-0.3466,-0.1036,0.2122,0.419
15.036000,-0.1120,-0.0507,0.0855,0.150
15.051000,0.0003,-0.0241,-0.0814,0.085
15.052000,0.1028,0.0215,-0.1575,0.189
15.055000,-0.0313,-0.0882,-0.1884,0.210
15.066000,-0.0674,-0.2241,-0.3438,0.416
15.066000,0.1690,-0.2498,-0.4540,0.545
15.067000,0.2906,-0.1989,-0.2925,0.458
15.070000,-0.0179,-0.3225,0.1240,0.346
15.076000,-0.4074,-0.4245,0.1268,0.602
15.085000,-0.7996,-0.5622,0.0269,0.978
15.087000,-2.8854,-2.5111,-0.5435,3.864
15.091000,-2.0334,-0.6195,0.5140,2.187
15.096000,-0.7934,-0.3769,-0.1860,0.898
15.103000,-0.8809,-0.2828,0.3414,0.986
15.104000,-1.6870,-0.7241,0.0134,1.836
15.109000,-1.0591,-0.5601,-0.0871,1.201
15.114000,0.1230,0.1843,0.1281,0.256
15.119000,0.3192,0.0007,-0.2735,0.420
15.124000,0.1091,0.1639,0.0612,0.206
15.129000,-0.0624,-0.2849,-0.3357,0.445
15.133000,-0.0693,-0.2264,-0.3693,0.439
15.139000,0.0859,-0.1606,-0.4346,0.471
15.143000,1.2235,0.4835,-0.3834,1.370
15.148000,0.5906,0.2187,-0.5143,0.813
15.153000,0.4232,0.3964,0.0067,0.580
15.159000,1.3088,0.7770,0.1356,1.528
15.163000,0.7280,0.6504,-0.0674,0.979
15.168000,0.2235,0.4139,-0.0620,0.474
15.179000,-0.2868,0.0511,-0.1735,0.339
15.180000,-0.1326,0.1213,0.4131,0.451
15.183000,-0.2201,-0.0740,0.0725,0.243
15.190000,-0.4993,-0.2355,0.3277,0.642
15.193000,-0.3895,-0.1865,0.3347,0.546
15.198000,-0.2446,-0.0133,0.0986,0.264
15.203000,-0.0621,0.1836,0.0994,0.218
15.208000,0.1608,0.2441,0.2033,0.356
15.213000,0.7044,0.5505,0.3365,0.955
15.218000,0.6513,0.5625,0.3959,0.947
15.222000,0.7838,0.5265,0.3125,0.995
15.226000,1.3939,0.8394,0.1723,1.636
15.231000,1.7888,1.0417,0.1497,2.075
15.236000,1.2046,0.5052,-0.1835,1.319
15.241000,0.3820,0.1627,-0.1865,0.455
15.246000,0.4575,0.2436,-0.2782,0.588
15.251000,0.3093,0.2193,-0.2673,0.464
15.256000,-0.1369,0.1066,-0.1945,0.261
15.261000,0.0580,0.0967,-0.1936,0.224
15.266000,0.0927,0.1156,-0.2501,0.291
15.271000,-0.0923,0.0723,-0.1058,0.158
15.276000,-0.2820,-0.0188,-0.0550,0.288
15.280000,-0.1564,-0.0475,0.0102,0.164
15.285000,0.0310,-0.0357,-0.0367,0.060
15.291000,0.1392,-0.0023,-0.1435,0.200
15.295000,0.0205,-0.1028,-0.2096,0.234
15.299000,-0.1267,-0.2413,-0.1877,0.331
15.306000,-0.0087,-0.2602,-0.3525,0.438
15.310000,0.0280,-0.2215,-0.4557,0.507
15.314000,0.0597,-0.2785,-0.4187,0.506
15.319000,-0.0614,-0.3162,-0.3179,0.453
15.326000,-0.2374,-0.3753,-0.1532,0.470
15.329000,0.0024,-0.3816,-0.2902,0.479
15.336000,0.2178,-0.2923,-0.2054,0.418
15.338000,0.0844,-0.3298,0.0055,0.340
15.344000,0.0209,-0.3170,0.1778,0.364
15.349000,0.0339,-0.3090,0.1871,0.363
15.354000,0.2309,-0.1863,0.1487,0.332
15.359000,0.2395,-0.0901,0.2826,0.381
15.363000,0.1215,-0.0992,0.3001,0.339
15.368000,0.0397,-0.1084,0.2341,0.261
15.373000,-0.0157,-0.1056,0.1015,0.147
15.378000,-0.0065,-0.1148,-0.0930,0.148
15.382000,-0.1694,-0.1239,-0.1349,0.249
15.388000,-0.0863,-0.2119,-0.3035,0.380
15.393000,-0.0009,-0.2136,-0.4291,0.479
15.397000,-0.1262,-0.3420,-0.4740,0.598
15.403000,-0.0894,-0.4604,-0.6058,0.766
15.407000,-0.0027,-0.4782,-0.7411,0.882
15.412000,-0.6481,-1.0216,-0.8965,1.506
15.417000,-2.5387,-2.1016,-0.8596,3.406
15.422000,-0.7964,-0.2023,0.1324,0.832
15.426000,-0.0900,-0.2553,-0.5685,0.630
15.431000,-0.1906,0.1889,-0.1097,0.290
15.444000,0.1938,0.4414,0.0762,0.488
15.444000,0.2819,0.5046,0.2244,0.620
15.446000,0.0884,0.5582,0.6528,0.863
15.462000,-0.3192,0.2218,0.4848,0.621
15.463000,-0.3898,0.0985,0.5142,0.653
15.463000,-0.3414,0.0996,0.3557,0.503
15.467000,-0.3580,0.1221,0.4658,0.600
15.470000,-0.1718,0.2090,0.3569,0.448
15.475000,-0.0361,0.0712,0.3491,0.358
15.481000,-0.1635,-0.1216,0.1436,0.249
15.485000,0.1417,0.2714,0.2851,0.418
15.490000,-0.1458,-0.0842,0.1545,0.228
15.495000,-0.5050,-0.0570,0.2420,0.563
15.499000,-0.0660,0.0969,-0.0911,0.148
15.504000,0.3894,0.1933,-0.1515,0.460
15.509000,0.6134,0.3755,-0.0903,0.725
15.514000,-0.0055,-0.2217,-0.3231,0.392
15.519000,-0.4801,-0.3688,-0.2906,0.672
15.524000,-0.0087,-0.1259,-0.2209,0.254
15.529000,0.0439,-0.0052,-0.2257,0.230
15.535000,0.1207,0.0890,-0.0941,0.177
15.539000,-0.1250,0.0398,0.0301,0.135
15.544000,-0.2800,0.0288,0.1973,0.344
15.549000,0.0979,0.0871,0.2046,0.243
15.555000,0.4566,0.4034,0.1814,0.636
15.559000,0.4501,0.3034,0.2447,0.595
15.563000,0.1700,0.1531,0.2727,0.356
15.581000,0.3544,0.1821,0.1027,0.412
15.582000,0.3218,0.1776,0.0455,0.370
15.585000,0.3690,0.1634,-0.0307,0.405
15.585000,-0.3483,-0.4745,-0.3697,0.695
15.602000,-0.0544,0.1024,-0.0035,0.116
15.602000,0.7605,0.3059,-0.2402,0.854
15.602000,-0.1929,-0.2701,-0.5176,0.615
15.602000,-0.2375,0.1776,0.0272,0.298
