time,ax,ay,az,aT
0.003000,0.1094,-0.0513,-1.3181,1.324
0.004000,0.1297,0.0003,-0.9956,1.004
0.004000,0.1258,0.0442,-0.5851,0.600
0.004000,0.0948,0.0500,-0.1680,0.199
0.004000,0.0388,0.0414,0.2224,0.229
0.005000,-0.0151,0.0248,0.5502,0.551
0.007000,-0.0529,0.0368,0.7990,0.802
0.011000,-0.0358,0.0582,0.9067,0.909
0.026000,-0.0209,0.0630,0.8424,0.845
0.027000,-0.0108,0.0196,0.6661,0.666
0.027000,0.0259,-0.0086,0.4041,0.405
0.032000,0.0748,-0.0542,0.1354,0.164
0.036000,0.1381,-0.0953,-0.1210,0.207
0.041000,0.2541,-0.0902,-0.3389,0.433
0.047000,0.3078,-0.0914,-0.5112,0.604
0.050000,0.3802,-0.1102,-0.6236,0.739
0.055000,0.3999,-0.0989,-0.6307,0.753
0.060000,0.3860,-0.0909,-0.5830,0.705
0.076000,0.3624,-0.0890,-0.4445,0.580
0.077000,0.3129,-0.0981,-0.2895,0.437
0.078000,0.2469,-0.1187,-0.1419,0.308
0.080000,0.2293,-0.1342,0.0199,0.266
0.091000,0.1957,-0.1546,0.2031,0.322
0.092000,0.1991,-0.1800,0.3191,0.417
0.096000,0.1918,-0.2154,0.5092,0.585
0.100000,0.1573,-0.2537,0.6082,0.678
0.105000,0.1532,-0.2164,0.6283,0.682
0.110000,0.1958,-0.2112,0.5719,0.640
0.115000,0.1745,-0.2044,0.4847,0.554
0.120000,0.0917,-0.1986,0.3928,0.450
0.123000,0.0216,-0.1763,0.2747,0.327
0.128000,-0.0314,-0.1809,0.1664,0.248
0.133000,-0.0793,-0.1382,0.1347,0.209
0.139000,-0.1151,-0.1149,0.1270,0.206
0.143000,-0.1386,-0.0798,0.1360,0.210
0.148000,-0.1475,-0.0451,0.1546,0.218
0.153000,-0.1441,-0.0369,0.1708,0.227
0.158000,-0.1502,-0.0387,0.1798,0.237
0.165000,-0.1370,-0.0101,0.1817,0.228
0.168000,-0.1074,-0.0108,0.1454,0.181
0.174000,-0.0590,-0.0145,0.1043,0.121
0.177000,-0.0444,-0.0258,0.0395,0.065
0.183000,-0.0516,-0.0493,-0.0349,0.079
0.188000,-0.0591,-0.0608,-0.0828,0.118
0.193000,-0.0695,-0.0866,-0.0924,0.144
0.211000,-0.1160,-0.0883,-0.0925,0.173
0.212000,-0.1462,-0.0946,-0.0280,0.176
0.212000,-0.1553,-0.0746,0.0435,0.178
0.213000,-0.1696,-0.0640,0.0839,0.200
0.217000,-0.1864,-0.0798,0.1506,0.253
0.223000,-0.1817,-0.0885,0.1670,0.262
0.226000,-0.1623,-0.0925,0.2144,0.284
0.248000,-0.1451,-0.0659,0.2331,0.282
0.249000,-0.1037,-0.0784,0.1945,0.234
0.249000,-0.0833,-0.0816,0.1392,0.182
0.249000,-0.0723,-0.0946,0.0935,0.151
0.264000,-0.0852,-0.0982,0.0789,0.152
0.265000,-0.0668,-0.1043,0.0692,0.142
0.265000,-0.0579,-0.1105,0.0762,0.146
0.276000,-0.0776,-0.1097,0.0832,0.158
0.277000,-0.0734,-0.0993,0.0663,0.140
0.277000,-0.0763,-0.0915,0.0948,0.152
0.293000,-0.0600,-0.0717,0.0731,0.119
0.295000,-0.0437,-0.0543,0.0418,0.081
0.296000,-0.0489,-0.0442,-0.0013,0.066
0.296000,-0.0660,-0.0413,-0.0659,0.102
0.308000,-0.0758,-0.0337,-0.0993,0.129
0.309000,-0.0972,-0.0187,-0.1351,0.168
0.310000,-0.1231,0.0037,-0.2187,0.251
0.326000,-0.1333,-0.0023,-0.3048,0.333
0.327000,-0.1268,0.0207,-0.3617,0.384
0.328000,-0.1071,0.0251,-0.3852,0.401
0.342000,-0.0856,0.0159,-0.3705,0.381
0.343000,-0.0766,-0.0074,-0.2985,0.308
0.343000,-0.0875,-0.0063,-0.2337,0.250
0.344000,-0.0746,-0.0192,-0.1465,0.165
0.380000,-0.0553,-0.0415,-0.0409,0.080
0.381000,-0.0459,-0.0614,0.0732,0.106
0.381000,-0.0150,-0.0859,0.1840,0.204
0.381000,0.0161,-0.1296,0.2773,0.307
0.382000,0.0616,-0.1236,0.3319,0.359
0.382000,0.0809,-0.1302,0.3670,0.398
0.383000,0.0672,-0.1681,0.3734,0.415
0.384000,0.0637,-0.1922,0.3821,0.432
0.389000,0.0607,-0.1812,0.3267,0.378
0.392000,0.0510,-0.1826,0.2765,0.335
0.404000,0.0511,-0.1511,0.2077,0.262
0.405000,0.0206,-0.1439,0.1870,0.237
0.407000,0.0024,-0.1368,0.1332,0.191
0.420000,-0.0109,-0.1157,0.0680,0.135
0.421000,-0.0243,-0.0732,-0.0299,0.083
0.422000,-0.0356,-0.0426,-0.0866,0.103
0.426000,-0.0617,-0.0309,-0.1477,0.163
0.440000,-0.0953,-0.0259,-0.1678,0.195
0.441000,-0.0843,-0.0013,-0.1403,0.164
0.442000,-0.0858,0.0117,-0.0419,0.096
0.453000,-0.0783,0.0130,0.0106,0.080
0.454000,-0.0543,0.0238,0.0675,0.090
0.457000,-0.0496,0.0368,0.1144,0.130
0.485000,-0.0567,0.0137,0.1443,0.156
0.487000,-0.0635,-0.0049,0.1478,0.161
0.488000,-0.0841,-0.0140,0.1347,0.159
0.488000,-0.1041,-0.0352,0.1027,0.150
0.488000,-0.1187,-0.0468,0.0781,0.150
0.489000,-0.1069,-0.0654,0.0490,0.135
0.491000,-0.0976,-0.0767,0.0391,0.130
0.496000,-0.0810,-0.0925,0.0625,0.138
0.500000,-0.0738,-0.0986,0.1070,0.163
0.505000,-0.0284,-0.0762,0.1156,0.141
0.512000,0.0142,-0.0682,0.1193,0.138
0.515000,0.0566,-0.0533,0.1112,0.136
0.520000,0.0748,-0.0340,0.0462,0.094
0.524000,0.0501,-0.0247,-0.0183,0.059
0.530000,0.0205,-0.0560,-0.0561,0.082
0.534000,-0.0208,-0.0491,-0.1126,0.125
0.539000,-0.0239,-0.0423,-0.2042,0.210
0.550000,-0.0201,-0.0209,-0.3116,0.313
0.551000,-0.0357,0.0198,-0.2450,0.248
0.554000,-0.0611,0.0320,-0.2049,0.216
0.580000,-0.0535,0.0278,-0.1842,0.194
0.581000,-0.0773,0.0189,-0.1044,0.131
0.582000,-0.0751,0.0054,-0.0513,0.091
0.582000,-0.0634,-0.0082,0.0037,0.064
0.583000,-0.0564,-0.0028,0.0536,0.078
0.583000,-0.0494,-0.0143,0.0959,0.109
0.588000,-0.0446,-0.0141,0.1236,0.132
0.593000,-0.0302,-0.0286,0.1605,0.166
0.599000,-0.0181,-0.0221,0.1830,0.185
0.603000,-0.0435,-0.0541,0.2076,0.219
0.607000,-0.0587,-0.0696,0.1892,0.210
0.613000,-0.0778,-0.0569,0.1616,0.188
0.617000,-0.0868,-0.0731,0.0891,0.144
0.622000,-0.0647,-0.0870,0.0385,0.115
0.630000,-0.0829,-0.0748,-0.0330,0.116
0.633000,-0.0560,-0.0552,-0.1395,0.160
0.636000,-0.0462,-0.0422,-0.2024,0.212
0.642000,-0.0537,-0.0360,-0.2743,0.282
0.647000,-0.0546,-0.0415,-0.2934,0.301
0.653000,-0.0537,-0.0512,-0.2933,0.303
0.658000,-0.0153,-0.0363,-0.2742,0.277
0.662000,-0.0014,-0.0400,-0.2885,0.291
0.666000,0.0331,-0.0054,-0.2670,0.269
0.672000,0.0263,-0.0064,-0.2054,0.207
0.676000,-0.0260,-0.0168,-0.1751,0.178
0.681000,-0.0282,-0.0057,-0.1475,0.150
0.687000,-0.0307,0.0172,-0.1320,0.137
0.694000,-0.0591,0.0304,-0.1047,0.124
0.701000,-0.1252,0.0102,-0.0799,0.149
0.702000,-0.1288,-0.0176,-0.0816,0.153
0.705000,-0.0966,0.0377,-0.0950,0.141
0.711000,-0.0574,0.0538,-0.1250,0.148
0.719000,-0.0231,0.0459,-0.1879,0.195
0.720000,0.0726,0.0661,-0.2551,0.273
0.734000,0.1417,0.0810,-0.2908,0.333
0.736000,0.2933,0.1213,-0.2907,0.430
0.736000,0.6096,0.1608,-0.0699,0.634
0.744000,0.6001,0.0605,0.1776,0.629
0.745000,0.4445,-0.0725,0.1823,0.486
0.749000,0.4168,-0.0780,0.0650,0.429
0.754000,0.3996,0.0011,-0.1668,0.433
0.759000,0.3948,0.0219,-0.3720,0.543
0.765000,0.3468,-0.0224,-0.4934,0.603
0.768000,0.3414,-0.0500,-0.5548,0.653
0.775000,0.3331,-0.1038,-0.5468,0.649
0.779000,0.3627,-0.1261,-0.6225,0.731
0.783000,0.4005,-0.1312,-0.7386,0.850
0.788000,0.4769,-0.1168,-0.7852,0.926
0.794000,0.4933,-0.1305,-0.7935,0.943
0.797000,0.4759,-0.1819,-0.7443,0.902
0.802000,0.4059,-0.2206,-0.6687,0.813
0.808000,0.3102,-0.2418,-0.6028,0.720
0.813000,0.2390,-0.2549,-0.5894,0.685
0.817000,0.1731,-0.2027,-0.5592,0.619
0.830000,0.0719,-0.1763,-0.4691,0.506
0.833000,-0.0000,-0.1615,-0.4149,0.445
0.836000,-0.0473,-0.1539,-0.3630,0.397
0.887000,-0.0671,-0.1894,-0.2776,0.343
0.888000,-0.0665,-0.1367,-0.2184,0.266
0.889000,-0.0761,-0.1156,-0.2309,0.269
0.890000,-0.0888,-0.0806,-0.2910,0.315
0.891000,-0.1144,-0.0868,-0.3628,0.390
0.892000,-0.1888,-0.1220,-0.4368,0.491
0.893000,-0.2643,-0.1956,-0.4531,0.560
0.894000,-0.3955,-0.2666,-0.4645,0.666
0.895000,-0.4910,-0.2844,-0.4518,0.725
0.896000,-0.5532,-0.3324,-0.4510,0.787
0.896000,-0.5485,-0.3411,-0.4117,0.766
0.897000,-0.4745,-0.3298,-0.3032,0.653
0.898000,-0.3938,-0.3321,-0.1636,0.540
0.901000,-0.2864,-0.2935,0.0047,0.410
0.907000,-0.1614,-0.2833,0.1368,0.354
0.912000,-0.0973,-0.2972,0.2760,0.417
0.914000,-0.0390,-0.2949,0.3767,0.480
0.920000,0.0064,-0.3075,0.4127,0.515
0.930000,0.0602,-0.3087,0.4319,0.534
0.937000,0.0888,-0.3129,0.4032,0.518
0.940000,0.1490,-0.3130,0.3626,0.502
0.941000,0.1474,-0.3205,0.3150,0.473
0.966000,0.1913,-0.3067,0.2937,0.466
0.967000,0.2063,-0.3479,0.2439,0.472
0.969000,0.2428,-0.3745,0.1751,0.479
0.971000,0.2810,-0.3936,0.1041,0.495
0.974000,0.2561,-0.4194,0.3369,0.596
0.975000,-0.2792,-1.0366,3.2365,3.410
0.976000,-0.2971,-0.8871,3.8734,3.985
0.981000,0.5633,0.0668,2.4302,2.496
0.984000,0.8373,0.2485,1.4979,1.734
0.990000,0.6558,-0.1573,1.3104,1.474
0.992000,0.2090,-0.7544,1.4484,1.646
0.998000,0.0699,-0.9563,1.3472,1.654
1.006000,0.1525,-0.8341,0.8733,1.217
1.008000,-0.0302,-0.9391,-0.2260,0.966
1.012000,-0.4905,-1.2428,-1.3210,1.879
1.016000,0.4881,-0.3660,-1.8021,1.903
1.023000,1.4101,0.4238,-1.6678,2.225
1.027000,1.1965,0.0491,-1.3394,1.797
1.032000,0.5567,-0.7778,-1.0421,1.414
1.040000,-0.0140,-1.3615,-0.6178,1.495
1.043000,-0.1469,-1.3950,-0.2103,1.418
1.046000,0.2559,-0.9398,-0.0298,0.974
1.079000,0.7562,-0.4136,-0.0042,0.862
1.080000,1.2337,-0.0775,-0.0902,1.239
1.080000,1.4130,-0.2282,0.0569,1.432
1.081000,1.4354,-0.5555,0.4296,1.598
1.081000,1.4739,-0.8233,0.9943,1.959
1.081000,1.6253,-0.9165,1.5067,2.398
1.084000,1.7375,-0.8249,1.9049,2.707
1.091000,1.7088,-0.7697,2.1339,2.840
1.092000,1.4520,-0.8128,2.2176,2.772
1.094000,1.0720,-0.9049,1.9987,2.442
1.103000,0.3926,-1.1642,1.4991,1.938
1.106000,-0.0287,-1.2328,1.0034,1.590
1.110000,-0.0651,-0.9800,0.5806,1.141
1.115000,-0.0152,-0.7400,0.2759,0.790
1.120000,0.0046,-0.6646,0.0888,0.671
1.125000,-0.9055,-0.8946,-0.1795,1.286
1.129000,-3.7336,-1.2427,-1.2494,4.129
1.136000,-4.1137,-0.6035,-1.6988,4.491
1.139000,-3.3498,0.1890,-1.3975,3.635
1.144000,-3.5258,0.2778,-1.2901,3.765
1.149000,-3.2906,0.2248,-0.9801,3.441
1.154000,-2.7433,0.1078,-0.5284,2.796
1.159000,-2.0997,-0.0854,-0.0540,2.102
1.163000,-1.6858,-0.1319,-0.2401,1.708
1.168000,-1.4438,0.0544,-0.9967,1.755
1.173000,-1.3139,0.2385,-1.7413,2.194
1.178000,-1.3211,0.2094,-2.1252,2.511
1.186000,-1.3455,0.0363,-2.2900,2.656
1.192000,-1.2725,-0.0294,-2.3843,2.703
1.194000,-1.1736,-0.0482,-2.5061,2.768
1.197000,-1.0805,-0.0875,-2.6790,2.890
1.211000,-0.9601,-0.1874,-2.9842,3.140
1.212000,-0.7214,-0.1908,-3.0962,3.185
1.213000,-0.5919,-0.2524,-3.5843,3.642
1.223000,-0.8932,-0.3849,-4.0528,4.168
1.224000,-1.1498,-0.3794,-4.1504,4.323
1.230000,-1.1186,-0.2040,-4.0034,4.162
1.231000,-0.9894,-0.0095,-3.8732,3.998
1.237000,-1.0327,0.0128,-3.4952,3.645
1.241000,-1.2744,-0.1063,-2.9228,3.190
1.246000,-1.2058,-0.1180,-2.2600,2.564
1.251000,-0.9277,-0.2120,-1.4789,1.759
1.256000,-0.6681,-0.3699,-0.9340,1.206
1.260000,-0.1864,-0.3550,-0.7786,0.876
1.268000,0.2703,-0.2662,-0.8183,0.902
1.271000,0.1869,-0.4168,-1.2674,1.347
1.276000,0.3915,-0.3726,-1.5131,1.607
1.281000,0.6252,-0.2239,-1.6228,1.753
1.287000,0.5505,-0.1859,-1.6730,1.771
1.291000,0.3987,-0.1298,-1.8016,1.850
1.296000,0.1428,-0.1359,-2.0255,2.035
1.307000,-0.1653,-0.0431,-2.2845,2.291
1.319000,-0.4384,0.1451,-2.7045,2.744
1.320000,-0.4645,0.2817,-2.8718,2.923
1.321000,-0.5041,0.2550,-3.2723,3.321
1.322000,-0.8036,0.1755,-3.6119,3.704
1.335000,-1.1822,0.2708,-4.0024,4.182
1.337000,-1.3732,0.3569,-4.2093,4.442
1.337000,-1.2601,0.4001,-4.4092,4.603
1.339000,-0.9371,0.3736,-4.1738,4.294
1.345000,-0.5079,0.2806,-3.7221,3.767
1.350000,-0.1042,0.1627,-2.8757,2.882
1.354000,0.2003,-0.0913,-2.4472,2.457
1.359000,0.2299,-0.4408,-1.9839,2.045
1.364000,0.1760,-0.6444,-1.7120,1.838
1.368000,0.1205,-0.8532,-1.8129,2.007
1.374000,-0.0393,-1.1694,-2.0500,2.360
1.378000,-0.1030,-1.3343,-2.1127,2.501
1.383000,-0.0221,-0.4684,-1.3803,1.458
1.389000,-0.4456,0.1408,-1.3835,1.460
1.393000,-0.4674,0.6600,-2.0456,2.200
1.402000,-0.5549,1.4074,-2.1502,2.629
1.404000,-1.8432,0.5055,-2.2653,2.964
1.407000,-2.0310,0.5779,-2.8158,3.520
1.415000,-1.7797,0.9187,-3.4185,3.962
1.431000,-1.6675,1.0540,-3.7748,4.259
1.433000,-1.7339,0.9928,-3.9060,4.387
1.434000,-1.7033,0.8754,-4.1680,4.587
1.435000,-1.4384,0.6695,-4.5115,4.782
1.437000,-1.3037,0.7865,-4.2009,4.468
1.443000,-1.2519,0.8448,-3.8769,4.161
1.449000,-1.2358,0.7256,-3.6960,3.964
1.452000,-1.0269,0.6950,-3.3389,3.562
1.461000,-0.8408,0.6411,-2.5949,2.802
1.463000,-0.7646,0.4975,-1.8623,2.074
1.471000,-0.7382,0.1328,-1.4352,1.619
1.472000,-0.6435,-0.3161,-1.5729,1.729
1.477000,-0.5231,-0.8479,-2.1284,2.350
1.486000,-0.6069,-1.3272,-2.9501,3.291
1.491000,-0.8381,-1.7881,-3.8963,4.368
1.492000,-1.1173,-2.1384,-4.7245,5.305
1.496000,-1.3558,-2.3468,-5.2688,5.925
1.500000,-1.6056,-2.4207,-5.3856,6.119
1.505000,-1.8835,-2.4091,-4.9427,5.812
1.509000,-2.1671,-2.3505,-3.8940,5.038
1.515000,-2.2962,-2.1670,-4.3082,5.341
1.520000,-2.2733,-1.9982,-4.7035,5.593
1.524000,-2.2964,-1.8204,-4.8482,5.665
1.532000,-2.2513,-1.5319,-4.5611,5.312
1.536000,-2.1162,-1.1651,-3.9296,4.613
1.539000,-1.9788,-0.7948,-3.4246,4.034
1.544000,-1.5760,-0.3191,-3.3985,3.760
1.555000,-1.2193,0.0526,-3.3585,3.573
1.556000,-1.1459,0.1809,-2.7887,3.020
1.559000,-1.0769,0.2756,-1.8908,2.193
1.565000,-0.9315,0.3888,-0.9747,1.403
1.568000,-0.9115,0.3909,-0.2294,1.018
1.574000,-0.8858,0.3201,0.1593,0.955
1.579000,-0.6944,0.3318,0.4007,0.868
1.583000,-0.5105,0.2851,0.6441,0.870
1.588000,-0.4191,0.1277,0.6330,0.770
1.592000,-0.3461,-0.1034,0.4959,0.614
1.598000,-0.2530,-0.3837,0.4925,0.674
1.602000,-0.0988,-0.6148,0.5506,0.831
1.607000,-0.0013,-0.8077,0.5832,0.996
1.613000,-0.0368,-1.0269,0.4541,1.123
1.618000,-0.0842,-1.1707,0.0712,1.176
1.622000,-0.1754,-1.3206,-0.4444,1.404
1.627000,-0.4336,-1.5066,-0.5456,1.660
1.633000,-0.7116,-1.6891,-0.5388,1.910
1.637000,-0.6042,-1.7535,-0.9476,2.083
1.642000,-0.6016,-1.9454,-1.3607,2.449
1.649000,-0.6905,-2.1922,-1.7448,2.886
1.653000,-0.6211,-2.1903,-1.9064,2.969
1.657000,-0.1670,-1.7656,-1.9296,2.621
1.667000,0.7482,-1.1245,-3.0644,3.349
1.669000,1.4644,-0.7603,-3.1965,3.597
1.673000,1.4326,-0.6949,-2.0973,2.633
1.706000,0.9342,-0.7465,-0.0801,1.199
1.708000,0.8250,-0.6190,1.1818,1.569
1.710000,1.3003,-0.4661,1.4564,2.007
1.711000,1.7779,-0.5111,1.3635,2.298
1.714000,2.0439,-0.6217,1.2128,2.457
1.715000,2.1578,-0.7713,1.3324,2.651
1.716000,2.2032,-0.9595,1.4977,2.832
1.717000,2.3330,-1.1030,1.7996,3.146
1.718000,2.3200,-1.2492,2.0863,3.361
1.727000,2.1507,-1.4196,2.3115,3.462
1.729000,2.0236,-1.4181,2.3099,3.382
1.730000,2.0875,-1.2163,2.0858,3.192
1.736000,2.2612,-0.9526,1.7228,2.998
1.744000,2.3731,-0.7521,1.3856,2.849
1.746000,2.4281,-0.5789,1.1219,2.737
1.749000,2.3788,-0.4761,0.9318,2.599
1.755000,2.2872,-0.4913,0.6061,2.417
1.760000,2.1091,-0.5433,0.4571,2.225
1.764000,1.8374,-0.4956,0.3827,1.941
1.770000,1.7576,-0.3318,0.2627,1.808
1.774000,1.7671,-0.1573,0.1749,1.783
1.783000,1.8596,0.0447,0.1252,1.864
1.785000,2.0094,0.3479,-0.0379,2.040
1.793000,2.0593,0.6088,-0.1669,2.154
1.799000,2.1370,0.7102,0.0400,2.252
1.800000,2.2398,0.8265,0.3502,2.413
1.810000,2.4985,0.9387,0.5791,2.731
1.812000,2.8079,0.9918,0.6461,3.047
1.814000,2.9069,0.9665,0.7742,3.160
1.820000,2.8357,0.9038,1.2962,3.246
1.823000,2.8348,0.9182,1.6677,3.415
1.829000,2.9822,0.9788,1.7692,3.603
1.833000,3.2511,1.0807,1.7181,3.833
1.838000,3.3501,1.1091,1.6343,3.889
1.846000,3.3388,1.1621,1.5539,3.862
1.848000,3.3345,1.2658,1.3007,3.796
1.851000,3.3467,1.4729,1.1538,3.834
1.857000,3.3136,1.7401,0.9052,3.851
1.863000,3.1881,2.0148,0.6244,3.823
1.867000,3.1784,2.3639,0.4088,3.982
1.872000,3.2951,2.6891,0.4398,4.276
1.879000,3.3269,2.8446,0.4375,4.399
1.883000,3.0399,2.8807,0.2872,4.198
1.887000,2.7456,3.0388,0.2212,4.101
1.899000,2.7924,3.3428,0.5190,4.386
1.900000,2.9200,3.5438,0.6237,4.634
1.902000,2.7963,3.5847,0.6057,4.586
1.909000,2.5742,3.6089,0.7048,4.489
1.911000,2.4779,3.6980,0.8667,4.535
1.923000,2.5257,3.7826,1.0414,4.666
1.926000,2.5768,3.8316,1.3343,4.806
1.926000,2.5048,3.8642,1.5521,4.860
1.931000,2.3768,3.8732,1.5206,4.792
1.935000,2.3793,3.9041,1.3622,4.771
1.941000,2.2470,3.8086,1.2437,4.594
1.950000,2.0753,3.5751,1.1307,4.286
1.952000,2.0625,3.4023,1.1063,4.130
1.954000,2.0792,3.2899,1.0721,4.037
1.971000,1.8817,3.1543,1.0420,3.818
1.973000,1.7468,3.0698,0.9105,3.648
1.974000,1.7269,3.1082,0.5076,3.592
1.976000,1.6883,3.1615,-0.0306,3.584
1.988000,1.6137,3.2587,-0.4073,3.659
1.991000,1.5157,3.4140,-0.4603,3.764
1.993000,1.5142,3.6010,-0.1827,3.911
2.003000,1.4686,3.7477,0.1526,4.028
2.005000,1.3583,3.8756,0.3545,4.122
2.007000,1.1935,3.9870,0.6933,4.219
2.020000,0.9365,4.0554,0.9898,4.278
2.022000,0.7308,4.1406,1.0153,4.325
2.024000,0.6648,4.2450,0.9188,4.394
2.025000,0.6023,4.2298,0.8153,4.350
2.058000,0.5457,4.1741,0.7266,4.272
2.059000,0.5192,4.0922,0.6456,4.175
2.059000,0.4032,3.9983,0.6686,4.074
2.060000,0.2982,3.8568,1.0323,4.004
2.060000,0.2415,3.8040,1.3685,4.050
2.061000,0.1335,3.7847,1.5197,4.081
2.061000,-0.0052,3.8135,1.5650,4.122
2.062000,-0.2392,3.9239,1.5639,4.231
2.067000,-0.3105,4.1324,1.4453,4.389
2.071000,-0.4633,4.4154,1.3837,4.650
2.080000,-0.8192,4.6650,1.3854,4.935
2.081000,-0.8832,4.8024,1.4544,5.095
2.086000,-0.6210,5.0018,1.3964,5.230
2.095000,-0.3923,5.1741,1.1865,5.323
2.096000,-0.5424,5.2328,1.0864,5.372
2.100000,-0.7788,5.2373,1.0642,5.401
2.106000,-0.8052,5.3504,1.0235,5.507
2.115000,-0.6954,5.5524,0.9655,5.678
2.116000,-0.5713,5.6328,1.1676,5.781
2.121000,-0.5567,5.4838,1.7154,5.773
2.144000,-0.5442,5.1991,2.2387,5.687
2.145000,-0.3812,4.9200,2.4963,5.530
2.146000,-0.1546,4.5415,2.5907,5.231
2.146000,-0.0155,4.0592,2.5599,4.799
2.147000,0.0232,3.4901,2.5809,4.341
2.151000,-0.0203,2.9355,2.5964,3.919
2.155000,-0.0018,2.4937,2.0571,3.233
2.159000,0.2708,2.1247,1.4505,2.587
2.164000,0.6318,1.8333,1.0278,2.195
2.169000,0.7179,1.4879,0.8014,1.836
2.174000,0.8466,1.1608,1.0557,1.783
2.179000,0.8839,0.9426,1.3511,1.870
2.183000,0.7745,0.8671,1.1314,1.622
2.188000,0.8908,0.8530,1.0741,1.636
2.194000,0.9960,1.1130,1.1486,1.884
2.200000,0.9548,1.4529,1.1500,2.084
2.204000,1.0262,1.7097,1.1745,2.314
2.211000,1.1303,1.6679,1.4203,2.465
2.214000,1.2419,1.4827,1.7429,2.604
2.218000,1.2740,1.4452,1.6463,2.534
2.242000,1.1819,1.3350,1.3239,2.221
2.243000,1.0665,1.2930,0.9952,1.949
2.244000,0.9230,1.2021,0.9390,1.783
2.245000,0.8495,1.0574,0.9442,1.653
2.245000,0.8103,0.8996,0.8608,1.486
2.248000,0.8342,0.7645,0.5098,1.241
2.253000,0.8138,0.5731,0.0492,0.997
2.257000,0.6843,0.3686,-0.1383,0.789
2.262000,0.6607,0.1942,-0.1958,0.716
2.267000,0.8282,0.0072,-0.3019,0.882
2.273000,0.9597,-0.3287,-0.5151,1.138
2.277000,0.8354,-0.6628,-0.5142,1.184
2.282000,0.8516,-0.9254,-0.7302,1.454
2.287000,0.8811,-1.0375,-0.7976,1.578
2.291000,0.7317,-1.1496,-0.6756,1.521
2.296000,0.6180,-1.2685,-0.8140,1.629
2.301000,0.6654,-1.3865,-1.1174,1.901
2.306000,0.6868,-1.4175,-1.1959,1.978
2.310000,0.6272,-1.6842,-1.2938,2.214
2.315000,0.4937,-1.8852,-1.4304,2.417
2.320000,0.4799,-1.9989,-1.6781,2.654
2.325000,0.5953,-2.0184,-1.8274,2.787
2.330000,0.6376,-2.0350,-1.7529,2.761
2.335000,0.4496,-2.0655,-1.5895,2.645
2.345000,0.3731,-1.8279,-1.6146,2.467
2.347000,0.5085,-1.5210,-1.6144,2.276
2.350000,0.5312,-1.3410,-1.6174,2.167
2.381000,0.4584,-1.2713,-1.5375,2.047
2.383000,0.4813,-1.1802,-1.4537,1.933
2.384000,0.5164,-1.0511,-1.3040,1.753
2.385000,0.5183,-0.8506,-1.2918,1.631
2.386000,0.5732,-0.5812,-1.4395,1.655
2.387000,0.6003,-0.3078,-1.4699,1.617
2.393000,0.5257,-0.1189,-1.4303,1.529
2.395000,0.4048,0.0405,-1.4419,1.498
2.396000,0.3522,0.1060,-1.4618,1.507
2.399000,0.4539,0.1852,-1.3796,1.464
2.406000,0.4351,0.2064,-1.2551,1.344
2.409000,0.3317,0.2508,-1.1936,1.264
2.413000,0.2511,0.2373,-1.1613,1.212
2.419000,0.2620,0.1711,-1.0841,1.128
2.423000,0.2469,0.1049,-1.1269,1.158
2.428000,0.2651,0.0987,-1.4422,1.470
2.433000,0.3041,0.0737,-1.6522,1.682
2.439000,0.3230,0.0087,-1.7616,1.791
2.443000,0.3834,0.0330,-1.7201,1.763
2.447000,0.3011,0.1656,-1.5538,1.591
2.454000,0.1715,0.3852,-1.3840,1.447
2.458000,0.0184,0.6057,-1.0437,1.207
2.462000,-0.2164,0.8241,-0.7178,1.114
2.469000,-0.1599,0.7033,-0.5206,0.890
2.474000,0.0018,0.7847,-0.3549,0.861
2.478000,0.1959,0.8450,-0.3836,0.948
2.482000,0.2852,0.8526,-0.2762,0.940
2.496000,0.2371,0.7833,-0.2346,0.851
2.498000,0.1427,0.7279,-0.2795,0.793
2.502000,0.2623,0.6433,-0.1945,0.721
2.504000,0.4496,0.5869,-0.1662,0.758
2.507000,0.5161,0.5538,-0.0623,0.760
2.532000,0.4451,0.5106,-0.1069,0.686
2.533000,0.3915,0.5651,-0.2136,0.720
2.534000,0.2546,0.6050,-0.5446,0.853
2.534000,0.2587,0.8049,-0.5494,1.008
2.535000,0.2269,0.9662,-0.3599,1.056
2.537000,0.2768,1.2251,-0.3304,1.299
2.541000,0.3564,1.3442,-0.3274,1.429
2.545000,0.5240,1.3212,-0.5381,1.520
2.551000,0.7031,1.2205,-0.7308,1.587
2.556000,0.7789,1.3099,-0.9220,1.781
2.559000,0.6563,1.5414,-0.9163,1.910
2.566000,0.4238,1.9151,-0.8962,2.156
2.571000,0.1747,2.2160,-0.6640,2.320
2.576000,-0.0243,2.4300,-0.3192,2.451
2.578000,-0.1683,2.5501,-0.0352,2.556
2.586000,-0.2792,2.5959,0.0749,2.612
2.589000,-0.2639,2.4934,0.0925,2.509
2.594000,-0.2086,2.3098,-0.1647,2.325
2.598000,-0.1970,2.0426,-0.4997,2.112
2.603000,-0.1648,1.7612,-0.6507,1.885
2.608000,-0.0352,1.5516,-0.8866,1.787
2.612000,-0.0305,1.3872,-1.3653,1.947
2.618000,-0.0072,1.2514,-1.8601,2.242
2.623000,-0.1712,0.9910,-3.5315,3.672
2.628000,-0.0100,-0.0935,-4.1532,4.154
2.632000,0.9540,-0.9217,-3.2517,3.512
2.637000,2.3458,-1.1186,0.6292,2.674
2.642000,2.5919,-1.3145,2.8032,4.038
2.647000,2.3722,-1.1586,2.8614,3.893
2.652000,2.1371,-0.6017,2.1093,3.062
2.657000,1.6585,-0.2922,0.7990,1.864
2.662000,1.0445,-0.2891,0.0573,1.085
2.667000,0.8460,-0.1161,-0.0472,0.855
2.671000,0.9008,0.2075,0.6035,1.104
2.676000,0.8181,0.4252,1.2180,1.528
2.682000,0.9024,0.6229,1.6216,1.958
2.688000,0.9907,0.6526,1.4626,1.883
2.692000,1.1233,0.6435,1.1263,1.716
2.697000,1.1571,0.5312,1.3394,1.848
2.704000,0.9321,0.3516,1.7029,1.973
2.708000,0.7688,0.3462,2.0317,2.200
2.713000,0.5427,0.1947,2.1086,2.186
2.719000,0.5155,-0.0881,1.8520,1.924
2.723000,0.7625,-0.0047,0.7193,1.048
2.729000,0.7052,-0.1217,0.0335,0.716
2.744000,0.2669,-0.5224,-0.0286,0.587
2.746000,-0.0713,-0.6473,-0.3062,0.720
2.787000,-0.6677,-1.0443,-1.4844,1.934
2.789000,-0.6469,-1.0514,-1.5173,1.956
2.790000,-0.7476,-0.9390,-1.8521,2.207
2.791000,-0.9535,-0.8529,-1.9198,2.307
2.792000,-1.1062,-0.8497,-1.7837,2.264
2.793000,-1.0490,-0.8142,-1.8456,2.274
2.794000,-0.8947,-0.6532,-1.6983,2.028
2.796000,-0.9322,-0.6490,-1.5741,1.941
2.797000,-1.1394,-0.6320,-1.3101,1.848
2.797000,-1.3562,-0.6022,-0.9542,1.764
2.798000,-1.2436,-0.1415,-0.9802,1.590
2.799000,-1.0495,0.3050,-1.0427,1.511
2.800000,-0.9325,-0.0471,-1.3408,1.634
2.804000,-0.8110,-1.3475,-1.5406,2.202
2.810000,0.1969,-0.4209,-0.8691,0.986
2.816000,0.7480,2.4235,-0.5840,2.603
2.820000,0.2159,4.4010,0.2533,4.414
2.824000,-0.6621,3.2400,1.2619,3.540
2.829000,-0.3331,2.2832,2.1835,3.177
2.835000,0.1100,1.7860,1.8715,2.589
2.838000,-0.1197,1.0335,1.9204,2.184
2.843000,-0.0451,0.5933,1.8048,1.900
2.853000,0.1359,0.3316,1.3015,1.350
2.854000,0.3298,0.1503,0.9996,1.063
2.859000,0.2847,0.0392,0.6572,0.717
2.862000,0.0154,0.0245,0.6042,0.605
2.893000,0.0420,0.1080,0.7224,0.732
2.895000,0.2242,0.3134,0.5333,0.658
2.896000,0.2995,0.4059,0.1925,0.540
2.896000,0.2969,0.2877,-0.0489,0.416
2.897000,0.4576,0.0691,-0.1477,0.486
2.899000,1.0352,0.0630,0.4671,1.137
2.900000,1.1455,-0.0893,0.8982,1.458
2.906000,0.8655,-0.0843,0.9674,1.301
2.909000,0.5515,-0.1850,1.3115,1.435
2.916000,0.6559,-0.1734,1.9205,2.037
2.919000,0.7128,-0.1834,1.8072,1.951
2.922000,0.7571,-0.0142,1.0916,1.329
2.926000,0.9095,0.2573,0.5744,1.106
2.931000,0.9121,0.4660,0.4132,1.104
2.936000,0.6291,1.2307,0.0894,1.385
2.940000,0.1985,1.5234,-0.4267,1.594
2.950000,0.0470,1.5936,-0.7805,1.775
2.957000,-0.2196,1.0375,-1.1591,1.571
2.986000,0.1125,1.0201,-0.6416,1.210
2.987000,0.4437,0.8953,-0.5633,1.147
2.988000,0.7960,0.8399,-0.6270,1.316
2.988000,0.9670,0.7531,-0.6146,1.371
2.989000,0.9597,0.6469,-0.8343,1.427
2.990000,1.0874,0.6886,-1.2777,1.814
2.990000,1.4102,0.8135,-1.1756,2.008
2.991000,1.6134,0.9160,-0.4508,1.909
2.996000,0.6528,0.6068,-0.3576,0.960
2.999000,-0.4345,0.4698,-0.4491,0.782
3.004000,-0.5325,0.5774,-0.2862,0.836
3.009000,-0.5475,0.3914,0.1828,0.697
3.014000,-1.3039,-0.1835,0.1111,1.321
3.021000,-2.5803,-0.7950,0.4200,2.732
3.023000,-0.7639,0.0149,-0.5362,0.933
3.030000,0.0905,0.4175,-0.9601,1.051
3.033000,-0.4732,-0.2208,-1.4903,1.579
3.039000,-0.4702,-0.8367,-1.6375,1.898
3.043000,0.0738,-1.0836,-1.7058,2.022
3.049000,0.5471,-1.0360,-1.7295,2.089
3.054000,0.5062,-1.0388,-1.5468,1.931
3.058000,0.4179,-0.9294,-1.0573,1.468
3.070000,0.4656,-0.5692,0.7301,1.036
3.072000,0.4614,0.3608,2.1676,2.245
3.074000,-1.3897,0.1117,-0.3440,1.436
3.104000,-0.6704,0.7229,0.0411,0.987
3.106000,-0.0865,0.7212,1.3224,1.509
3.106000,-0.8186,0.4630,1.5312,1.797
3.107000,-1.1726,0.3263,1.4196,1.870
3.107000,-0.6151,0.0749,1.3608,1.495
3.108000,-0.0648,-0.1787,1.3247,1.338
3.113000,-0.1923,-0.2196,1.0113,1.053
3.113000,0.0765,-0.0839,0.8538,0.861
3.116000,0.6302,-0.1756,0.9818,1.180
3.122000,0.7677,-0.7786,1.0376,1.507
3.127000,1.0920,-1.2874,0.5783,1.784
3.130000,1.6371,-1.4914,0.1610,2.220
3.136000,1.9873,-1.5823,0.2286,2.551
3.141000,2.0273,-1.3955,0.3125,2.481
3.145000,1.7993,-1.1443,0.3921,2.168
3.151000,1.6112,-0.7426,0.1786,1.783
3.155000,1.7304,-0.5155,0.0865,1.808
3.165000,1.7528,-0.4031,0.1059,1.802
3.167000,1.5665,-0.3432,0.1763,1.613
3.171000,1.1674,-0.1184,0.0399,1.174
3.199000,0.4025,0.2450,-0.1836,0.506
3.200000,-0.4324,0.3671,-0.4669,0.735
3.200000,-0.7475,0.3749,-0.6508,1.060
3.200000,-0.6770,0.4453,-0.8598,1.182
3.201000,-0.3806,0.6212,-1.0599,1.286
3.201000,-0.2379,0.5342,-1.1626,1.301
3.204000,-0.0706,-0.0045,-1.2737,1.276
3.209000,-0.1889,-0.4137,-1.3787,1.452
3.214000,-0.0435,-0.5427,-1.5295,1.623
3.219000,0.7095,-0.3824,-1.9343,2.096
3.224000,1.1769,-0.2466,-2.4710,2.748
3.228000,1.0326,-0.1927,-2.6395,2.841
3.234000,0.7979,-0.1394,-2.3726,2.507
3.239000,0.6631,-0.1030,-2.0716,2.178
3.244000,0.4772,-0.1839,-1.9039,1.971
3.252000,0.4329,-0.2264,-1.5609,1.636
3.254000,0.6107,-0.0894,-1.2338,1.380
3.274000,0.5374,0.0452,-0.8863,1.037
3.275000,0.1965,0.0937,-0.4723,0.520
3.276000,0.0397,0.0803,-0.1816,0.202
3.277000,-0.1741,0.1411,0.3090,0.382
3.279000,-0.1615,0.4578,0.6704,0.828
3.281000,-0.0257,0.6000,0.4585,0.756
3.287000,-0.1652,0.4506,0.0185,0.480
3.313000,-0.2622,0.3900,-0.0496,0.473
3.315000,-0.4339,0.1982,-0.0881,0.485
3.316000,-0.6686,0.1025,-0.0067,0.676
3.316000,-0.5889,0.0813,0.0155,0.595
3.317000,-0.4099,0.3041,0.3709,0.631
3.317000,-0.1596,-0.0684,-0.0492,0.180
3.321000,-0.1436,-0.1752,0.2620,0.346
3.328000,-0.3238,-0.0501,0.6747,0.750
3.331000,-0.6987,-0.0277,0.9233,1.158
3.335000,-0.7071,0.0212,0.6641,0.970
3.342000,-0.7549,-0.0110,0.5261,0.920
3.345000,-0.7535,-0.0719,0.6057,0.969
3.351000,-0.6333,-0.0442,0.5104,0.815
3.356000,-0.5433,-0.1026,0.9597,1.108
3.361000,-0.1020,-0.1247,1.2159,1.226
3.366000,0.5970,0.0064,0.9260,1.102
3.370000,0.7503,0.0105,0.6050,0.964
3.377000,0.6610,0.2006,0.4181,0.807
3.380000,0.7600,0.2110,0.4443,0.905
3.386000,0.7488,0.1110,0.6109,0.973
3.392000,0.8278,0.0036,0.4298,0.933
3.397000,0.7570,-0.0344,0.2614,0.802
3.400000,0.5255,0.0185,-0.3536,0.634
3.405000,0.4439,0.1672,-0.9685,1.078
3.416000,0.0422,0.0886,-1.0914,1.096
3.418000,-0.4028,0.0582,-1.1075,1.180
3.427000,-0.5474,-0.0556,-0.8690,1.029
3.429000,-0.6794,-0.2000,-1.0271,1.248
3.430000,-0.5840,-0.2482,-1.0059,1.189
3.447000,-0.2849,-0.1478,-0.5638,0.649
3.448000,-0.0183,-0.0355,0.0674,0.078
3.448000,0.0563,-0.0545,0.3653,0.374
3.450000,0.0397,-0.0449,0.2259,0.234
3.453000,0.2116,0.0077,-0.2355,0.317
3.459000,0.4813,0.1606,-0.9475,1.075
3.464000,0.6200,0.2561,-1.4929,1.637
3.468000,0.6327,0.1889,-1.6696,1.795
3.474000,0.5293,0.1027,-1.4564,1.553
3.478000,0.2332,-0.1052,-1.0352,1.066
3.482000,-0.0674,-0.1239,-0.6228,0.639
3.487000,-0.3633,-0.1163,-0.2013,0.431
3.492000,-0.6837,-0.1923,0.2065,0.740
3.497000,-0.7496,-0.2919,0.5150,0.955
3.502000,-0.7406,-0.3747,0.8183,1.166
3.509000,-0.7304,-0.5099,0.9011,1.267
3.512000,-0.9650,-0.6164,0.7781,1.384
3.517000,-1.2935,-0.8183,1.2166,1.955
3.523000,-1.0861,-0.8691,1.2391,1.863
3.528000,-0.8408,-0.9459,0.7446,1.468
3.532000,-0.6260,-1.1131,0.3356,1.320
3.537000,-0.6440,-1.4042,0.2368,1.563
3.550000,-0.4405,-1.4032,0.4911,1.551
3.553000,0.1993,-1.1463,0.4567,1.250
3.556000,1.3043,-0.8919,0.1337,1.586
3.558000,1.8600,-0.8029,-0.3694,2.059
3.589000,1.8388,-0.6018,-0.6794,2.051
3.590000,1.8459,-0.7380,-1.0312,2.240
3.591000,1.7292,-0.6041,-1.2651,2.226
3.592000,1.5527,-0.5638,-1.1875,2.034
3.593000,1.1535,-0.0026,-0.8002,1.404
3.593000,1.0479,-0.1162,-0.3325,1.105
3.594000,0.5736,-0.4138,0.0052,0.707
3.596000,0.8155,-0.8712,-0.5438,1.311
3.600000,0.0192,0.1605,0.0797,0.180
3.605000,-0.0188,0.1681,0.2854,0.332
3.609000,0.1351,0.0704,0.5366,0.558
3.614000,-0.3097,-0.4216,1.2273,1.334
3.618000,-0.2915,-0.8700,0.7291,1.172
3.623000,0.0876,0.8879,0.1636,0.907
3.628000,0.8786,0.2536,0.3709,0.987
3.633000,0.2044,0.4946,0.7068,0.887
3.642000,0.6321,0.3910,0.3867,0.838
3.643000,0.6824,-0.0735,-0.0585,0.689
3.649000,0.4586,-0.5065,-0.2781,0.738
3.674000,0.5342,0.4709,-1.0007,1.228
3.676000,0.6082,0.5030,-1.2353,1.466
3.677000,0.2147,-0.3588,-0.7724,0.878
3.678000,0.1723,-0.2491,-0.7737,0.831
3.678000,0.2005,-0.2660,-0.7707,0.840
3.679000,0.1442,-0.5265,-0.9113,1.062
3.683000,0.0659,-0.5907,-0.9034,1.081
3.687000,0.0590,-0.7050,-0.5753,0.912
3.692000,0.5231,-1.0868,-0.3241,1.249
3.697000,0.3442,-0.2446,0.0472,0.425
3.703000,0.6071,-0.0680,0.4602,0.765
3.707000,0.5287,-0.7929,1.3478,1.651
3.712000,0.1500,-1.0535,1.7063,2.011
3.717000,0.0385,-0.6760,1.1044,1.295
3.722000,0.0941,-1.0232,0.7398,1.266
3.727000,-0.3092,-1.5279,-0.0477,1.560
3.732000,-0.4841,-1.5205,-0.5390,1.684
3.740000,-0.0539,-1.2070,-1.3283,1.796
3.742000,-0.4182,-1.0037,-1.1711,1.598
3.749000,-0.3727,-1.2496,-1.0920,1.701
3.750000,-0.3985,-0.8927,-1.2494,1.586
3.773000,-0.6504,-0.8922,-0.6871,1.300
3.774000,-0.2917,-0.4971,-1.1350,1.273
3.774000,-0.0685,-0.4751,-1.1572,1.253
3.775000,0.0224,-0.2165,-0.7953,0.825
3.776000,0.2896,0.1328,-0.0454,0.322
3.780000,0.3753,0.3836,0.4580,0.706
3.786000,0.2222,-0.1021,1.0842,1.111
3.791000,0.0308,0.0173,1.4320,1.432
3.795000,1.0226,1.4506,1.5004,2.324
3.799000,1.2200,1.4407,1.2008,2.237
3.804000,0.3960,0.3141,1.3508,1.442
3.808000,0.2502,0.5535,0.9697,1.144
3.814000,0.6920,1.4234,0.0837,1.585
3.819000,1.3950,1.9431,-0.2488,2.405
3.824000,1.6475,2.3471,-0.4230,2.899
3.829000,1.8609,2.1696,0.5406,2.909
3.833000,1.5643,1.8726,0.8421,2.581
3.838000,1.3867,2.2398,0.6159,2.705
3.843000,2.1853,2.1020,-0.0032,3.032
3.848000,1.5484,1.8015,-0.7386,2.488
3.861000,1.1211,1.4965,-1.2886,2.271
3.864000,0.8251,1.1563,-1.5692,2.117
3.867000,-0.0570,0.5658,-1.6690,1.763
3.874000,-0.7997,0.3468,-1.4304,1.675
3.875000,-1.4625,-0.1605,-1.1028,1.839
3.877000,-1.6326,-0.3153,-1.1804,2.039
3.882000,-1.4759,-0.1635,-1.2173,1.920
3.897000,-1.5035,-0.1716,-1.5835,2.190
3.898000,-1.5282,-0.1312,-1.7315,2.313
3.903000,-1.0616,-0.3006,-1.5000,1.862
3.904000,-1.0310,-0.0034,-1.4432,1.774
3.907000,-0.8694,0.1433,-1.1516,1.450
3.912000,-0.5223,0.3068,-0.6368,0.879
3.920000,-0.5171,0.4608,0.0548,0.695
3.921000,-0.0472,0.5070,0.3576,0.622
3.927000,-0.2868,0.6632,0.4576,0.855
3.931000,-0.2472,0.7331,0.8538,1.152
3.936000,-0.2248,0.8815,1.3984,1.668
3.943000,-0.4320,1.0749,1.6421,2.010
3.946000,-0.4440,1.1722,1.5878,2.023
3.952000,-0.4501,1.5035,1.3386,2.063
3.956000,-0.3237,1.7838,1.1862,2.167
3.961000,-0.3539,2.0541,0.9944,2.309
3.968000,-0.5140,1.4396,0.6000,1.642
3.971000,-1.1006,0.9524,-0.1934,1.468
3.976000,-1.0604,0.7456,-1.0020,1.638
3.980000,-1.1211,0.6037,-1.5259,1.987
3.986000,-1.1755,0.5103,-1.8905,2.284
3.990000,-1.1263,0.5967,-2.0447,2.409
3.994000,-0.1063,0.8030,-2.3406,2.477
4.002000,0.0359,0.7324,-2.2427,2.359
4.005000,0.0978,0.6121,-2.1121,2.201
4.011000,0.1662,0.3082,-1.5323,1.572
4.023000,0.1697,-0.0429,-0.9332,0.949
4.026000,0.8211,-0.2046,-0.4961,0.981
4.026000,1.7511,-0.4114,-1.0271,2.071
4.030000,1.8337,-0.7182,-1.6425,2.564
4.052000,2.6183,-0.5657,-1.9220,3.297
4.054000,4.3045,-0.4755,-2.6129,5.058
4.055000,7.5304,-0.2230,-4.3152,8.682
4.056000,7.5744,0.8224,-5.8347,9.596
4.057000,5.5478,2.3257,-4.5596,7.548
4.059000,0.9712,1.4114,0.2449,1.731
4.064000,-3.3801,-0.7163,6.1528,7.057
4.067000,-4.9410,-1.9917,9.4841,10.878
4.074000,-4.7355,-2.0504,9.1952,10.544
4.079000,-3.9365,-1.7660,6.6049,7.889
4.083000,-2.5906,-1.2172,3.7406,4.710
4.088000,-1.7574,-0.4616,1.7769,2.541
4.092000,-1.3784,0.1114,0.7584,1.577
4.098000,-1.4755,0.2440,0.4997,1.577
4.102000,-2.4772,-1.1098,-0.0571,2.715
4.107000,-1.9595,-1.2403,0.8898,2.484
4.112000,-1.0976,-0.7085,1.3696,1.893
4.117000,-0.8542,-0.4808,1.2349,1.577
4.122000,-0.4711,-0.2366,0.5755,0.780
4.127000,-0.0488,-0.0670,0.1259,0.151
4.135000,0.6404,0.1454,-0.3896,0.764
4.137000,0.9637,0.1832,-0.6489,1.176
4.142000,0.7643,0.0703,-0.8057,1.113
4.151000,0.6187,-0.1284,-1.0924,1.262
4.153000,0.6052,-0.5489,-1.0362,1.320
4.189000,1.1274,-0.9305,0.2139,1.477
4.190000,1.1869,-0.8052,-0.1050,1.438
4.191000,0.8681,-0.2596,-0.0306,0.907
4.191000,0.4743,0.2206,-0.5246,0.741
4.192000,0.3608,0.3083,-0.8079,0.937
4.193000,0.2429,0.1044,-0.7473,0.793
4.193000,-0.0614,-0.0920,-0.3364,0.354
4.193000,-0.3251,-0.0538,0.3173,0.457
4.195000,-1.3110,0.1779,0.7008,1.497
4.200000,-1.4224,0.7513,0.1597,1.617
4.207000,-0.7291,0.5402,-0.0288,0.908
4.210000,-0.4633,-0.2584,-0.5084,0.735
4.216000,-0.0600,-0.3197,-0.7808,0.846
4.219000,0.1106,-0.1418,-0.8033,0.823
4.225000,0.5104,0.0720,-0.6550,0.834
4.229000,0.6953,-0.0084,-0.4243,0.815
4.233000,0.9173,-0.0337,-0.4522,1.023
4.238000,0.8412,-0.0710,-0.5667,1.017
4.243000,0.5925,-0.0319,-0.3825,0.706
4.248000,0.6985,0.0429,-0.1456,0.715
4.254000,0.7814,0.0411,0.0365,0.783
4.258000,0.5568,0.0629,0.1261,0.574
4.268000,0.6487,-0.0206,-0.0130,0.649
4.269000,0.7083,-0.0540,-0.1538,0.727
4.273000,0.5154,0.0177,-0.4256,0.669
4.320000,0.2563,0.0941,-0.4440,0.521
4.322000,0.2579,0.0821,-0.2716,0.383
4.323000,0.0780,-0.0041,-0.2142,0.228
4.323000,0.1421,0.0246,-0.1095,0.181
4.324000,-0.1214,0.2803,0.0815,0.316
4.324000,-1.4374,0.9588,0.1407,1.734
4.325000,-1.6610,0.1623,0.0230,1.669
4.326000,-1.1034,-0.2124,0.4485,1.210
4.326000,-0.2165,-0.0966,0.2862,0.372
4.327000,0.5471,-0.1243,0.1033,0.570
4.328000,0.9188,-0.2215,-0.0857,0.949
4.333000,1.2198,-0.1921,-0.3793,1.292
4.338000,0.9681,-0.0911,-0.6467,1.168
4.341000,0.8303,0.0431,-0.5915,1.020
4.347000,0.6535,0.0098,-0.4556,0.797
4.353000,0.5185,0.0888,-0.3134,0.612
4.358000,0.2097,-0.0211,-0.1548,0.262
4.363000,0.0761,-0.0521,0.1305,0.160
4.367000,-0.2388,0.1034,-0.0053,0.260
4.370000,-0.1310,0.2062,-0.2943,0.383
4.375000,0.3228,0.0891,-0.3059,0.454
4.381000,0.5045,-0.1665,-0.5063,0.734
4.390000,0.5911,-0.1900,-0.5975,0.862
4.391000,0.5213,-0.2110,-0.5320,0.774
4.413000,0.3614,-0.0313,-0.3644,0.514
4.414000,0.3238,0.0860,-0.0563,0.340
4.415000,0.5114,0.0932,0.1180,0.533
4.416000,0.0468,0.0763,0.4528,0.462
4.416000,-0.2615,-0.4902,-0.0895,0.563
4.420000,-0.2065,0.0911,0.0067,0.226
4.425000,0.0025,0.3084,0.6204,0.693
4.430000,0.0792,0.0855,0.6261,0.637
4.434000,-0.0019,0.0253,0.1047,0.108
4.440000,0.1942,0.0464,-0.5687,0.603
4.443000,0.6005,0.0939,-0.8787,1.068
4.449000,0.6843,0.1174,-0.8164,1.072
4.454000,0.5202,0.1050,-0.3462,0.634
4.459000,0.3352,0.0639,0.4272,0.547
4.464000,0.0071,0.0896,0.8524,0.857
4.468000,-0.1510,0.0386,0.7340,0.750
4.473000,-0.1061,-0.0053,0.1536,0.187
4.493000,-0.0495,0.0440,-0.6697,0.673
4.495000,0.1167,0.0051,-1.4166,1.421
4.497000,0.2827,0.0310,-2.1629,2.181
4.498000,0.3721,0.0501,-2.9007,2.925
4.500000,0.5335,0.1391,-2.9428,2.994
4.503000,0.9463,0.7065,-2.1495,2.453
4.508000,1.1220,1.0870,0.1582,1.570
4.529000,-0.1371,0.0091,1.2531,1.261
4.531000,0.2011,-0.5970,3.1827,3.244
4.532000,-0.3284,-0.9499,3.3895,3.535
4.533000,-1.0852,-0.5860,1.9252,2.286
4.533000,-0.8397,0.0186,0.2587,0.879
4.537000,-0.3476,0.0347,-0.8197,0.891
4.542000,-0.1217,-0.0972,-1.3682,1.377
4.548000,0.0013,0.0343,-1.4174,1.418
4.551000,0.0215,0.1540,-0.9817,0.994
4.557000,0.1537,0.1615,-0.6411,0.679
4.561000,0.3334,0.1259,-0.5908,0.690
4.566000,0.2907,0.0594,-0.7251,0.783
4.571000,0.1500,-0.0284,-0.8908,0.904
4.576000,-0.4900,-0.1255,-1.5582,1.638
4.581000,-1.4359,-0.1525,-2.2651,2.686
4.587000,-2.1041,-0.2240,-2.1612,3.025
4.591000,-1.7480,-0.3542,-0.9356,2.014
4.599000,-0.5117,-0.6032,0.1319,0.802
4.600000,0.6931,-0.9211,0.6423,1.320
4.606000,0.7690,-1.6976,0.5492,1.943
4.620000,-0.2834,-1.6918,-0.2259,1.730
4.625000,-0.7589,-1.0477,-0.0571,1.295
4.631000,-0.4360,-0.5691,0.4473,0.845
4.632000,0.0766,-0.2607,0.6702,0.723
4.633000,0.2518,-0.1870,0.3967,0.506
4.634000,0.5208,0.0539,-0.1944,0.558
4.658000,0.7908,0.2944,-0.4195,0.942
4.659000,0.6583,0.2406,-0.1478,0.716
4.660000,0.3095,0.1581,0.3104,0.466
4.660000,0.1955,0.1807,0.6113,0.667
4.661000,0.2588,0.0119,0.8102,0.851
4.666000,0.3371,-0.0877,0.8262,0.897
4.668000,0.2677,-0.3188,0.7005,0.815
4.675000,0.2869,-0.4590,0.4451,0.701
4.678000,0.7293,-0.4630,0.1936,0.885
4.683000,1.0524,-0.2091,0.2397,1.099
4.688000,1.2980,0.0297,0.1719,1.310
4.694000,1.3233,0.2608,-0.2729,1.376
4.698000,1.1744,0.1948,-0.4283,1.265
4.703000,1.1307,0.2601,-0.2611,1.189
4.709000,0.9791,0.1577,0.1500,1.003
4.713000,0.7601,0.1291,0.4086,0.873
4.718000,0.5307,0.1862,0.6204,0.837
4.722000,0.3862,0.1665,0.6993,0.816
4.728000,0.4554,0.0843,0.7459,0.878
4.733000,0.3297,-0.0578,0.6621,0.742
4.751000,-0.0769,-0.1546,0.3473,0.388
4.753000,0.0402,-0.5333,0.2989,0.613
4.756000,0.0443,-0.5340,0.3037,0.616
4.758000,-0.0829,-0.6780,-0.0167,0.683
4.760000,-0.3319,-0.8767,-0.1726,0.953
4.801000,-0.5889,-0.9746,0.0226,1.139
4.802000,-0.3547,-1.2035,0.1405,1.263
4.803000,-0.3053,-1.5610,-0.2085,1.604
4.804000,-0.0560,-1.6740,-0.8786,1.891
4.805000,0.9552,-1.8128,-1.4085,2.487
4.807000,1.0923,-1.6695,-1.6674,2.600
4.810000,1.2646,-1.2825,-1.2450,2.190
4.811000,1.1278,-1.1828,-1.0952,1.967
4.812000,1.8039,-1.3007,-1.1385,2.498
4.813000,1.2093,0.0724,-0.5073,1.313
4.813000,0.9868,0.9562,0.7213,1.552
4.817000,0.9520,-0.0114,0.4502,1.053
4.820000,0.7395,-0.9375,0.1540,1.204
4.827000,0.3130,-0.4143,-0.0053,0.519
4.830000,0.1606,0.0220,0.1471,0.219
4.834000,-0.0646,-0.5462,0.3596,0.657
4.840000,-0.7978,-1.1258,0.2310,1.399
4.845000,-1.0441,-0.1368,0.5738,1.199
4.850000,-0.3548,-0.4348,0.7669,0.950
4.854000,-0.1302,-1.3178,0.4198,1.389
4.860000,-0.4549,-2.1592,-0.3473,2.234
4.865000,-0.9219,-0.9897,0.1130,1.357
4.868000,-0.7599,1.1655,0.2960,1.422
4.876000,0.4150,-1.4639,0.3027,1.551
4.887000,-0.5816,-0.5411,-1.1453,1.394
4.891000,-1.0413,-1.1893,-0.7468,1.748
4.893000,-0.1953,0.7208,0.4057,0.850
4.893000,-1.5520,-0.1246,-1.1482,1.935
4.932000,-0.9883,2.9870,0.5061,3.187
4.934000,-0.5447,-1.0626,-0.0312,1.194
4.935000,-1.6214,-0.4180,-0.5583,1.765
4.936000,-1.5614,1.1296,0.7470,2.067
4.937000,-0.3990,2.3239,1.7074,2.911
4.939000,-1.0250,0.8688,0.3909,1.399
4.941000,-1.1601,0.3072,0.0227,1.200
4.941000,-0.7602,0.4277,0.1423,0.884
4.942000,-0.7614,-0.0157,0.3236,0.828
4.943000,-0.6814,-0.8265,0.1336,1.079
4.947000,-0.5513,2.3212,0.3767,2.415
4.951000,0.8572,3.1708,1.1165,3.469
4.956000,0.9069,0.0401,-1.3412,1.620
4.961000,-0.1165,0.9810,-1.3042,1.636
4.967000,-0.1482,1.1993,-0.8091,1.454
4.971000,0.0923,0.4401,-1.0616,1.153
4.976000,-0.0151,0.2056,-1.0494,1.070
4.981000,-0.3120,0.6766,-0.2947,0.801
4.987000,0.0513,0.9201,0.5424,1.069
4.991000,-0.1633,0.5514,0.2262,0.618
4.996000,-0.5099,0.0160,0.0446,0.512
5.001000,-0.7165,-0.2294,0.0833,0.757
5.005000,-0.1529,0.0778,0.6774,0.699
5.017000,0.2300,0.1335,0.6514,0.704
5.019000,-0.0899,-0.0332,-0.3629,0.375
5.030000,0.2351,-0.1470,-0.6443,0.701
5.033000,-0.1748,-0.4924,-0.3921,0.653
5.034000,-0.0237,-0.1679,0.0323,0.173
5.036000,-0.1577,-0.3219,-0.0948,0.371
5.063000,0.2458,0.1003,-0.2736,0.381
5.065000,0.7472,0.0488,-0.3469,0.825
5.066000,0.6298,-0.0721,0.2832,0.694
5.066000,0.8794,0.1989,-0.2315,0.931
5.067000,1.0590,0.3547,-0.3764,1.179
5.068000,0.0114,-0.0945,-0.3757,0.388
5.072000,0.2101,-0.2275,-0.1292,0.336
5.075000,0.6169,-0.0258,-0.3398,0.705
5.079000,0.3643,-0.0800,-0.8399,0.919
5.083000,1.0737,0.3748,0.3691,1.196
5.088000,0.6921,-0.1320,-0.1392,0.718
5.093000,0.8910,-0.0218,-0.6454,1.100
5.098000,1.5289,0.2506,-0.7672,1.729
5.107000,1.4636,0.4960,-0.4858,1.620
5.108000,1.3720,0.4228,-0.0976,1.439
5.140000,1.4530,0.6360,0.0896,1.589
5.141000,1.5720,0.8580,-0.1100,1.794
5.141000,1.4524,0.5748,-0.4696,1.631
5.142000,0.9721,0.7170,-0.6092,1.353
5.143000,0.4487,0.9615,-0.3429,1.115
5.143000,0.2733,0.1924,-0.4407,0.553
5.147000,0.1609,0.1052,-0.6654,0.693
5.148000,-0.3216,0.3934,-0.5322,0.736
5.152000,-0.0820,0.4067,0.0563,0.419
5.157000,-0.2157,0.0925,-0.0297,0.237
5.162000,-0.2994,0.2186,-0.1878,0.416
5.166000,-0.3052,0.0269,-0.3244,0.446
5.173000,0.6873,0.5072,-0.0643,0.857
5.176000,0.7286,0.2816,-0.1223,0.791
5.181000,0.2739,0.1253,0.0307,0.303
5.186000,-0.0771,0.1196,-0.1408,0.200
5.191000,0.0543,-0.0079,0.1660,0.175
5.195000,0.2786,-0.0015,0.8777,0.921
5.201000,0.1297,0.0905,1.0176,1.030
5.205000,0.0936,0.3376,0.5206,0.628
5.210000,0.2850,0.1850,0.1803,0.385
5.215000,0.1756,0.0492,0.1681,0.248
5.221000,0.1340,-0.0291,0.1198,0.182
5.225000,0.4106,-0.2245,-0.0744,0.474
5.231000,-0.1486,-0.0518,0.5252,0.548
5.247000,-0.1405,0.2185,0.6469,0.697
5.252000,0.5872,0.1897,0.1736,0.641
5.256000,0.7297,0.4092,-0.0049,0.837
5.257000,0.6726,0.3367,0.0750,0.756
5.257000,0.7886,0.3093,0.3280,0.908
5.292000,1.0684,0.4490,-0.2575,1.187
5.294000,1.6126,0.4686,-0.6077,1.786
5.294000,1.3992,0.3945,-0.4460,1.521
5.294000,1.3624,0.3776,-0.3853,1.465
5.295000,1.1399,0.3912,-0.5608,1.329
5.296000,1.1849,0.8252,-0.5929,1.561
5.296000,0.5287,0.5825,-0.8613,1.166
5.297000,0.8016,0.3879,-0.6928,1.128
5.302000,-0.0589,0.2363,-0.7688,0.806
5.304000,-0.1275,0.0566,-0.2795,0.312
5.308000,0.3803,-0.0272,-0.3055,0.489
5.313000,0.9367,0.1377,-0.6288,1.137
5.317000,0.8251,0.1157,-0.3972,0.923
5.323000,0.4167,-0.0640,-0.4652,0.628
5.327000,0.8350,0.0769,-1.3592,1.597
5.337000,1.3293,0.3299,-1.1760,1.805
5.338000,1.0318,-0.1772,-0.7462,1.286
5.342000,0.7366,-0.2750,-0.7605,1.094
5.347000,0.9758,-0.1813,-1.0026,1.411
5.367000,0.5945,-0.0971,-0.7981,1.000
5.368000,0.0712,-0.2183,-0.4993,0.550
5.368000,-0.7043,-0.2961,0.0495,0.766
5.369000,-0.8326,-0.4930,0.3520,1.030
5.372000,-0.7410,-0.5173,1.2413,1.535
5.377000,-0.4492,-0.4484,1.1319,1.298
5.383000,-0.1298,-0.3819,0.4076,0.573
5.385000,-0.4155,-0.6931,0.4376,0.919
5.390000,-0.4721,-0.6859,0.7388,1.113
5.395000,-0.2908,-0.9058,1.1391,1.484
5.401000,-0.2327,-0.4921,0.1214,0.558
5.405000,-0.4411,-0.8793,0.3340,1.039
5.410000,-0.5362,-0.5299,0.2696,0.801
5.426000,-1.0956,-0.1448,-0.9998,1.490
5.428000,-1.1035,-0.4146,1.1505,1.647
5.430000,-2.3990,-0.1844,0.2231,2.416
5.431000,-2.7121,-0.1404,0.7939,2.829
5.450000,-3.3331,-0.3256,1.3298,3.603
5.451000,-3.7658,-0.4075,1.0653,3.935
5.451000,-3.2998,-0.3313,1.8920,3.818
5.451000,-2.8292,-0.3579,1.2808,3.126
5.453000,-2.4968,-0.0807,0.4348,2.536
5.459000,-2.4616,-0.0571,0.0682,2.463
5.464000,-1.8674,-0.1909,-0.2243,1.890
5.469000,-1.8157,0.1490,-0.2803,1.843
5.473000,-1.4383,-0.3572,-0.8657,1.716
5.478000,-1.6335,-0.0259,-1.1381,1.991
5.483000,-1.1397,0.0616,-1.6360,1.995
5.488000,-1.3068,-0.0439,-1.7485,2.183
5.492000,-1.4658,-0.0125,-1.4272,2.046
5.499000,-1.4350,-0.1671,-1.1883,1.871
5.502000,-2.1044,-0.4429,-0.4735,2.202
5.507000,-1.4854,-0.2877,-0.1742,1.523
5.516000,-1.5282,-0.2636,-0.2255,1.567
5.517000,-0.9775,-0.3658,0.3101,1.089
5.522000,-0.5665,-0.1518,0.1200,0.599
5.527000,-1.4342,-0.3894,0.1589,1.495
5.532000,-0.9357,-0.2460,0.0200,0.968
5.537000,-0.7799,-0.7449,-0.3351,1.129
5.542000,0.1588,-0.0572,0.7942,0.812
5.551000,-0.0706,-0.7749,-0.2040,0.804
5.552000,0.8055,-0.4658,0.1790,0.948
5.557000,0.8532,-0.0059,-0.6760,1.089
5.561000,1.5255,-0.1792,-0.2141,1.551
5.593000,2.2048,0.3219,0.0430,2.229
5.595000,2.9022,-0.0309,0.6092,2.966
5.596000,3.2656,0.0320,0.6443,3.329
5.597000,3.4041,0.0869,0.9295,3.530
5.598000,3.9909,0.4057,0.0064,4.011
5.598000,2.9757,0.3380,-0.2565,3.006
5.599000,3.4278,0.3791,0.4916,3.484
5.601000,3.2631,0.1870,0.9963,3.417
5.606000,2.5298,0.1204,0.2981,2.550
5.611000,2.2879,0.1150,0.7859,2.422
5.616000,1.8595,0.0870,0.9489,2.089
5.620000,1.6314,0.2230,0.6308,1.763
5.625000,1.5472,0.3079,0.5945,1.686
5.631000,1.3033,0.3346,0.5072,1.438
5.635000,1.6051,0.2791,0.3526,1.667
5.640000,1.0895,0.4477,0.3142,1.219
5.647000,0.6937,0.3718,0.7480,1.086
5.653000,0.5480,0.2692,0.8754,1.067
5.654000,0.7668,0.3743,0.1800,0.872
5.659000,1.2999,0.6558,-0.4830,1.534
5.665000,1.7418,0.5733,-0.6897,1.959
5.669000,0.9051,0.4976,-0.5024,1.149
5.674000,0.5229,0.5388,-0.5734,0.945
5.696000,0.9059,0.6972,-0.4368,1.224
5.697000,1.2807,0.6567,0.5801,1.552
5.697000,1.1387,0.5750,-0.0939,1.279
5.698000,1.0252,0.7011,-0.6953,1.423
5.700000,0.7128,0.6500,-0.4623,1.070
5.705000,0.2920,0.5343,-0.4613,0.764
5.707000,0.0949,0.4714,-0.6324,0.794
5.723000,0.1398,0.5138,-0.4498,0.697
5.724000,-0.0687,0.4130,-0.3138,0.523
5.725000,-0.4072,0.2477,-0.2729,0.549
5.732000,-0.3630,0.0517,-0.4304,0.565
5.734000,-0.7623,-0.1077,-0.5035,0.920
5.739000,-0.6286,-0.3480,-0.4044,0.824
5.743000,-0.2574,-0.2003,-0.8542,0.914
5.748000,0.3147,-0.1364,-1.4695,1.509
5.752000,-0.0350,-0.1054,-1.7475,1.751
5.756000,0.1347,-0.0598,-1.8826,1.888
5.762000,0.7657,0.1701,-2.1838,2.320
5.766000,0.9317,0.1848,-2.3428,2.528
5.771000,0.0802,0.1711,-1.8489,1.859
5.777000,-0.3978,-0.1171,-1.2871,1.352
5.784000,-0.5927,0.1453,-0.9053,1.092
5.787000,-0.5735,0.0709,-0.7600,0.955
5.791000,-1.5357,-0.0437,-0.1668,1.545
5.797000,-2.0962,-0.3249,0.7653,2.255
5.801000,-2.0245,-0.3497,0.8781,2.234
5.806000,-2.1273,-0.2735,1.0884,2.405
5.816000,-2.0599,-0.1661,1.0857,2.334
5.818000,-1.9732,-0.2473,0.8437,2.160
5.856000,-0.9897,-0.0006,0.5323,1.124
5.856000,-0.8388,0.1120,0.2994,0.898
5.857000,-0.3746,0.2174,0.2133,0.483
5.857000,-0.1173,0.2965,0.1877,0.370
5.857000,0.2900,0.2918,0.0959,0.422
5.858000,0.8022,0.3610,0.2489,0.914
5.858000,0.5047,0.3033,0.2760,0.650
5.858000,0.5644,0.3913,0.1226,0.698
5.860000,0.3403,0.4050,0.0823,0.535
5.864000,0.3489,0.5691,-0.2321,0.707
5.868000,1.1069,1.1487,-0.5443,1.686
5.875000,0.2153,0.3270,-0.7329,0.831
5.879000,-0.2357,0.1755,-0.2576,0.391
5.884000,-0.0607,0.1605,-0.2205,0.279
5.888000,0.0227,0.3249,-0.1907,0.377
5.893000,-0.2141,0.1186,-0.2687,0.363
5.898000,-0.3195,0.1875,-0.1082,0.386
5.903000,-0.6907,-0.1283,-0.1181,0.712
5.908000,-0.3909,0.0057,-0.3606,0.532
5.913000,-0.8358,-0.1685,-0.3435,0.919
5.918000,-1.7385,-0.5405,0.3248,1.849
5.925000,-6.0191,-2.2999,-0.6272,6.474
5.928000,-5.6451,-1.4075,-4.9421,7.634
5.933000,2.0275,0.7280,1.8360,2.831
5.938000,3.9350,-0.4042,3.8669,5.532
5.946000,3.9591,-1.4288,1.6418,4.518
5.948000,4.1055,-1.1986,0.3141,4.288
5.953000,1.0616,-0.0567,1.3220,1.696
6.001000,-0.8418,-0.1667,1.5145,1.741
6.003000,0.1268,-0.4606,0.0671,0.482
6.003000,0.2244,-0.1018,-0.1166,0.273
6.004000,-0.0700,-0.0255,0.2782,0.288
6.004000,0.1212,-0.0257,0.1186,0.172
6.004000,0.1305,0.0982,-0.2269,0.280
6.005000,-0.0633,0.0309,-0.5387,0.543
6.005000,0.0800,-0.0124,-0.0360,0.089
6.006000,0.1682,0.1523,0.0720,0.238
6.008000,0.0461,0.0610,-0.0996,0.126
6.012000,-0.0113,-0.0135,0.0159,0.024
6.013000,0.2038,0.4284,-0.3968,0.618
6.016000,0.3135,0.1934,-0.9789,1.046
6.021000,0.0913,0.1714,-1.2103,1.226
6.025000,0.0555,0.3433,-0.6281,0.718
6.031000,0.3735,0.2497,-0.5542,0.713
6.035000,-0.1236,-0.1616,-0.0649,0.214
6.045000,-0.3384,0.2450,0.1348,0.439
6.046000,-0.1136,-0.0611,-0.1269,0.181
6.050000,-0.1117,-0.1349,0.1085,0.206
6.055000,-0.0620,0.0279,0.3750,0.381
6.088000,0.4558,0.0137,-0.0058,0.456
6.090000,0.1393,-0.5646,-0.1995,0.615
6.090000,-0.4299,1.0971,0.0276,1.179
6.090000,1.2641,-0.2879,-1.3806,1.894
6.091000,-0.0586,0.1476,0.2178,0.270
6.091000,-0.7226,0.1141,0.1178,0.741
6.092000,-2.6016,1.0630,-0.9285,2.960
6.094000,-0.8345,0.0973,0.9789,1.290
6.100000,3.1992,-1.1135,0.1075,3.389
6.106000,1.5975,-0.1201,0.2546,1.622
6.110000,-0.5354,-0.2228,0.1638,0.603
6.114000,-0.1976,0.1598,-0.2565,0.361
6.118000,-0.2310,0.1548,-0.0984,0.295
6.125000,-0.1949,-0.2039,0.4493,0.530
6.128000,0.3474,-0.1105,0.4306,0.564
6.133000,0.3160,-0.2587,0.2215,0.465
6.138000,-0.1911,-0.2107,0.3832,0.477
6.144000,-0.1838,-0.0219,-0.1048,0.213
6.146000,-0.0261,-0.2156,-0.3485,0.411
6.151000,0.2004,-0.2823,0.1267,0.369
6.161000,0.3076,0.0906,0.6236,0.701
6.169000,0.3118,0.4367,-0.5806,0.791
6.169000,0.8491,-0.4459,-0.9311,1.337
6.222000,-0.5852,0.1782,0.4410,0.754
6.223000,-0.5559,-0.0253,-0.3127,0.638
6.224000,0.1515,-0.0970,-0.3564,0.399
6.225000,0.0551,0.0297,0.5413,0.545
6.226000,0.5803,-0.1807,0.1602,0.629
6.226000,0.4887,0.0702,-0.1744,0.524
6.227000,0.2473,-0.3341,-0.4967,0.648
6.227000,-0.4572,0.2970,-0.2005,0.581
6.228000,0.2939,-0.4252,-0.0244,0.518
6.228000,-0.1816,-0.1572,0.5293,0.581
6.229000,0.1297,-0.4178,0.7845,0.898
6.230000,0.0225,0.3566,0.3380,0.492
6.230000,-0.5916,0.1742,-0.5973,0.859
6.236000,0.4578,-0.5647,0.0133,0.727
6.239000,-0.0660,0.2100,1.5795,1.595
6.245000,-0.1879,-0.2592,0.1662,0.361
6.251000,0.1559,0.0944,-0.6765,0.701
6.255000,-0.1910,0.1871,-0.2736,0.383
6.260000,-0.0267,0.0527,-0.1586,0.169
6.264000,0.2379,0.1455,-0.2873,0.400
6.269000,0.0505,0.1474,-0.2728,0.314
6.275000,-0.0507,0.1373,-0.2275,0.271
6.279000,0.0489,0.2038,-0.3186,0.381
6.283000,0.0743,0.1962,-0.4575,0.503
6.293000,0.1211,0.1503,-0.4772,0.515
6.294000,0.1295,0.1882,-0.3469,0.415
6.299000,0.0257,0.1640,-0.2553,0.304
6.309000,0.0032,0.1111,-0.1615,0.196
6.310000,-0.0936,0.0296,-0.1304,0.163
6.314000,0.0272,0.0439,-0.0921,0.106
6.317000,0.0139,-0.0135,-0.0753,0.078
6.322000,0.1010,-0.0614,0.0275,0.121
6.327000,0.0325,-0.0613,0.0821,0.108
6.332000,0.0098,0.0056,0.1228,0.123
6.339000,0.0967,0.0032,-0.1999,0.222
6.342000,0.2435,-0.0662,-0.2091,0.328
6.347000,0.1799,0.0605,-0.2255,0.295
6.355000,0.0497,0.0102,-0.5221,0.525
6.356000,-0.2406,-0.1236,0.0412,0.274
6.363000,0.1049,0.0104,0.5709,0.581
6.368000,0.2349,-0.0733,0.2644,0.361
6.372000,-0.0221,-0.1426,0.3985,0.424
6.377000,0.1464,0.0104,0.0195,0.148
6.381000,0.1859,0.0221,-0.2967,0.351
6.387000,-0.0447,0.0458,-0.5150,0.519
6.391000,-0.1917,0.0624,-0.4182,0.464
6.395000,0.3593,0.0958,-0.7978,0.880
6.402000,0.4057,0.2223,-0.3654,0.590
6.405000,0.0078,0.0548,-0.3284,0.333
6.410000,-0.0573,-0.0145,-1.1831,1.185
6.415000,-0.0607,0.1578,-0.9928,1.007
6.421000,0.3688,0.0457,-0.8302,0.910
6.425000,0.0732,0.2230,0.2611,0.351
6.430000,-0.2741,0.1274,3.6702,3.683
6.450000,0.3800,-0.2362,3.1131,3.145
6.451000,-0.2237,-0.2078,-2.2212,2.242
6.451000,-0.2555,0.2655,-2.2668,2.297
6.452000,0.0587,0.0359,-0.0627,0.093
6.455000,0.2054,0.0718,0.5716,0.612
6.459000,0.1536,0.0526,-0.0868,0.184
6.465000,0.0494,0.1529,-0.1851,0.245
6.473000,0.1077,0.1265,-0.3790,0.414
6.474000,-0.0060,0.1479,-0.1836,0.236
6.479000,0.1599,0.0737,-0.0840,0.195
6.484000,0.1727,0.0712,-0.0155,0.187
6.488000,0.1785,-0.0268,-0.0091,0.181
6.493000,0.1557,-0.0220,-0.0672,0.171
6.498000,0.0613,-0.1510,0.1377,0.213
6.503000,-0.0376,-0.2154,0.6224,0.660
6.508000,0.3486,-0.3252,0.6463,0.803
6.513000,0.2281,-0.1625,0.1838,0.335
6.518000,-2.3401,-0.0478,0.1283,2.344
6.523000,1.5730,-0.5877,1.1397,2.029
6.528000,2.1937,0.0580,-0.7850,2.331
6.532000,-0.8763,-0.1266,0.7941,1.189
6.540000,-0.0074,-0.3635,0.0943,0.376
6.543000,0.3871,0.1885,-0.1936,0.472
6.549000,-0.4062,-0.3858,0.1402,0.577
6.556000,-0.1452,0.1520,-0.0646,0.220
6.558000,0.3303,-0.0134,0.4790,0.582
6.564000,-0.0810,-0.2361,0.3560,0.435
6.591000,0.0123,0.1843,0.0711,0.198
6.593000,0.2752,0.0258,0.1621,0.320
6.594000,0.3086,-0.0083,0.9711,1.019
6.594000,0.9161,0.0220,0.9298,1.306
6.595000,0.8211,0.0067,0.1759,0.840
6.595000,0.3068,0.0844,-0.7098,0.778
6.596000,-0.0683,0.1238,-1.6917,1.698
6.634000,0.0567,0.1849,-1.6145,1.626
6.636000,-0.1245,0.1935,-1.0135,1.039
6.636000,-0.0810,0.2763,-1.5190,1.546
6.637000,-0.2721,0.3449,-2.3229,2.364
6.638000,-0.8795,0.4304,-3.3092,3.451
6.639000,-0.8017,0.4136,-3.1433,3.270
6.641000,-0.4290,0.4331,-2.6461,2.715
6.642000,-0.1343,0.4028,-1.2815,1.350
6.644000,0.4037,0.2245,1.8439,1.901
6.645000,0.3011,0.0987,2.6225,2.642
6.654000,-0.2932,-0.1396,0.8720,0.931
6.656000,-0.3845,-0.3157,1.2697,1.364
6.660000,0.0267,-0.2093,1.7628,1.775
6.671000,0.0675,-0.2969,1.4604,1.492
6.672000,0.0227,-0.2796,1.5635,1.588
6.681000,0.1372,-0.1332,0.7358,0.760
6.682000,0.0134,-0.2048,0.5729,0.609
6.734000,0.1025,-0.1592,0.2710,0.331
6.735000,-0.1216,-0.1973,0.4088,0.470
6.736000,0.2446,-0.0226,-0.0278,0.247
6.737000,0.1709,-0.1302,0.1079,0.240
6.737000,0.0836,-0.1566,0.6895,0.712
6.738000,0.3074,-0.0278,-0.0254,0.310
6.738000,-0.0050,0.0150,-0.7238,0.724
6.739000,-0.3294,0.0102,-0.9768,1.031
6.740000,0.0085,0.1392,-0.8812,0.892
6.740000,-0.1724,0.1056,-0.3423,0.398
6.741000,-0.2443,0.0986,-1.7047,1.725
6.742000,-1.2046,0.4215,-1.6503,2.086
6.743000,-2.5744,-0.0941,-0.4217,2.610
6.750000,4.6872,2.6320,-3.8731,6.626
6.761000,2.0424,-1.0148,-2.7410,3.566
6.762000,0.7983,0.5191,-1.1486,1.492
6.762000,0.8486,0.5744,-1.9378,2.192
6.766000,-0.4507,-0.3930,-2.8022,2.865
6.772000,-0.6533,0.4787,-0.0358,0.811
6.777000,0.1132,0.1381,1.6337,1.643
6.781000,0.0753,0.1204,0.6893,0.704
6.786000,0.0500,0.2771,-0.1521,0.320
6.791000,0.0866,0.0895,0.6114,0.624
6.796000,0.3102,-0.1005,-0.0347,0.328
6.801000,0.3088,-0.1755,1.0394,1.098
6.806000,0.1811,-0.3748,1.3869,1.448
6.811000,-0.1888,-0.4019,2.3778,2.419
6.818000,-0.0401,-0.7925,1.9208,2.078
6.820000,-0.0202,-0.3777,2.4891,2.518
6.825000,-0.0265,-0.7787,2.5807,2.696
6.840000,-0.1382,-0.7232,2.6742,2.774
6.842000,-0.1186,-0.5773,2.5162,2.584
6.843000,-0.4046,-0.1738,1.8341,1.886
6.844000,-0.1964,-0.2418,1.4663,1.499
6.850000,0.7622,-0.5631,0.6469,1.147
6.855000,0.3131,-0.2844,0.0347,0.424
6.860000,0.1228,0.0967,-0.9158,0.929
6.864000,-0.0670,0.2408,-1.2999,1.324
6.869000,0.1422,0.5905,-1.4513,1.573
6.874000,-0.5568,-0.4079,-0.2661,0.740
6.880000,-0.6947,0.3541,0.0102,0.780
6.884000,0.4925,-0.9566,0.6668,1.266
6.889000,1.2775,1.4168,-1.8136,2.632
6.894000,-1.2668,-1.0737,1.1283,2.008
6.898000,0.7030,0.4181,-0.6476,1.043
6.904000,0.7544,-0.2333,-1.5762,1.763
6.908000,0.0208,-0.0497,-0.9735,0.975
6.914000,0.0671,0.1194,0.0224,0.139
6.918000,-1.7509,0.2262,0.4313,1.817
6.923000,-0.2468,-0.5034,1.5782,1.675
6.929000,4.5917,-1.3827,1.7041,5.089
6.933000,3.1352,-0.3262,1.8193,3.639
6.939000,-0.8304,-0.2442,1.3174,1.576
6.943000,0.5306,-0.1507,0.1133,0.563
6.949000,1.1013,-0.4900,-0.0461,1.206
6.954000,0.8941,-0.5519,-0.0083,1.051
6.958000,0.9521,-0.2863,-0.3662,1.060
6.973000,0.1219,-0.0521,-1.0385,1.047
6.975000,-0.3244,-0.0427,-1.2699,1.311
6.976000,-0.9714,0.1868,-1.6641,1.936
6.981000,-0.7234,-0.1165,-1.5927,1.753
7.011000,-3.1786,1.0149,-4.3775,5.504
7.013000,-1.8460,-0.0433,-2.3468,2.986
7.013000,0.7196,0.6928,-0.4992,1.117
7.014000,0.1315,0.7923,-0.1082,0.810
7.014000,-0.1645,0.4663,-1.1533,1.255
7.015000,-7.1725,-0.7003,0.6007,7.232
7.016000,-5.2994,-1.6157,-4.5037,7.140
7.017000,8.6276,2.2054,-1.8800,9.101
7.022000,7.3607,1.4773,5.8730,9.532
7.029000,0.2359,-0.0068,6.1454,6.150
7.030000,-2.2168,-0.5481,-0.0059,2.284
7.037000,-1.5073,-0.0559,-2.5710,2.981
7.041000,-0.6023,0.1541,-0.7521,0.976
7.045000,-0.0413,0.2589,0.1338,0.294
7.050000,0.2464,0.2680,0.0801,0.373
7.055000,0.1922,0.2698,-0.2811,0.434
7.065000,0.0138,0.1115,-0.6564,0.666
7.066000,0.0624,0.0276,-0.5110,0.516
7.070000,0.1827,-0.0156,-0.0679,0.196
7.076000,0.2408,-0.1017,0.1764,0.315
7.116000,0.1556,-0.1543,0.3416,0.406
7.117000,0.1591,-0.1758,0.4378,0.498
7.117000,0.1269,-0.1878,0.4841,0.535
7.118000,0.2455,-0.2142,0.4784,0.579
7.118000,0.2950,-0.2095,0.5665,0.672
7.119000,0.2658,-0.1786,0.3660,0.486
7.119000,0.3350,-0.1263,0.1757,0.399
7.120000,0.2277,-0.0334,0.1888,0.298
7.122000,0.2284,0.0090,0.1354,0.266
7.123000,0.2438,0.0896,-0.0181,0.260
7.129000,0.1996,0.1845,-0.0707,0.281
7.133000,0.1843,0.2027,-0.2592,0.377
7.139000,0.2288,0.2543,-0.3567,0.494
7.144000,0.2137,0.2366,-0.5595,0.644
7.148000,0.0889,0.1567,-0.4780,0.511
7.155000,0.0070,0.1200,-0.1343,0.180
7.159000,-0.0055,0.1240,-0.0586,0.137
7.163000,-0.1114,0.1328,0.0579,0.183
7.169000,-0.0407,0.0914,-0.0262,0.103
7.173000,-0.0466,0.0931,-0.0405,0.112
7.193000,-0.0982,0.0566,-0.0595,0.128
7.198000,-0.1118,0.0416,-0.2148,0.246
7.198000,-0.0729,0.0291,-0.3030,0.313
7.199000,0.0062,0.0501,-0.2697,0.274
7.199000,0.0708,0.0927,-0.2225,0.251
7.202000,0.0684,0.1017,-0.1754,0.214
7.207000,0.0325,0.0749,-0.2765,0.288
7.226000,-0.0298,0.0505,-0.3037,0.309
7.227000,0.0058,0.0572,-0.2929,0.299
7.227000,0.0483,0.0736,-0.2586,0.273
7.228000,0.0215,0.0875,-0.0929,0.129
7.231000,0.0328,0.0895,-0.0397,0.103
7.236000,0.0057,0.0747,0.0255,0.079
7.242000,0.0311,0.0767,-0.0596,0.102
7.246000,0.0421,0.0405,-0.1278,0.141
7.251000,0.0338,0.0187,-0.2893,0.292
7.258000,0.0902,0.0184,-0.4628,0.472
7.262000,0.0460,-0.0058,-0.5388,0.541
7.265000,-0.0172,-0.0418,-0.5869,0.589
7.270000,0.0297,0.0131,-0.6287,0.630
7.275000,0.0049,0.0559,-0.5757,0.578
7.280000,0.0492,0.0534,-0.4135,0.420
7.285000,0.0481,0.0580,-0.4338,0.440
7.291000,-0.1084,0.0125,-0.1533,0.188
7.299000,0.0099,-0.0234,-0.2628,0.264
7.306000,0.1472,-0.0472,-0.6021,0.622
7.307000,-0.0192,-0.1786,-0.4736,0.507
7.346000,-0.0995,-0.2428,0.1030,0.282
7.347000,0.1430,-0.1563,0.1767,0.276
7.348000,0.1151,-0.0915,0.1501,0.210
7.349000,0.0850,-0.0387,-0.0913,0.131
7.349000,0.2343,0.0451,-0.5787,0.626
7.350000,0.3024,0.0714,-0.6959,0.762
7.350000,0.1508,-0.0361,-0.4269,0.454
7.351000,-0.1535,-0.1123,0.0920,0.211
7.351000,0.0084,-0.2148,0.3713,0.429
7.355000,1.0020,-0.4414,0.4738,1.193
7.360000,0.9043,0.0443,0.0313,0.906
7.363000,-0.1482,-0.1902,0.9900,1.019
7.369000,-0.1217,-0.2785,0.9835,1.029
7.373000,0.2463,-0.2115,0.5193,0.612
7.377000,0.2631,-0.1733,0.5030,0.594
7.383000,-0.0518,-0.0707,0.6475,0.653
7.388000,-0.1850,0.0102,0.5061,0.539
7.393000,0.0878,-0.0045,-0.0884,0.125
7.397000,0.0686,0.0286,-0.3907,0.398
7.402000,-0.0031,-0.0316,-0.0885,0.094
7.456000,-0.2948,-0.0103,0.3255,0.439
7.457000,-0.1996,-0.1062,0.3236,0.395
7.458000,-0.0738,0.0872,0.1286,0.172
7.458000,0.0731,0.0247,0.0465,0.090
7.459000,-0.0192,0.1511,-0.0472,0.159
7.460000,-0.0496,0.0741,0.0650,0.110
7.460000,-0.1521,0.2722,-0.0306,0.313
7.460000,-0.1523,0.3290,0.0252,0.363
7.461000,0.0261,0.3929,-0.1646,0.427
7.461000,-0.0493,0.4233,-0.1031,0.438
7.461000,-0.5002,0.1454,0.5637,0.768
7.462000,-0.3275,-0.0390,0.3088,0.452
7.466000,0.1215,0.2213,0.5211,0.579
7.470000,0.2328,0.1635,0.0602,0.291
7.476000,-0.0261,0.2108,-0.1415,0.255
7.480000,-0.0270,0.1888,-0.4455,0.485
7.486000,-0.0566,0.0951,-0.3862,0.402
7.490000,-0.1509,0.0375,0.0311,0.159
7.496000,-0.0900,0.0636,0.0514,0.122
7.500000,0.0807,0.0920,-0.2959,0.320
7.506000,0.2248,0.1754,-0.6336,0.695
7.510000,0.3809,0.2181,-0.6943,0.821
7.517000,0.1858,0.1914,-0.6219,0.677
7.519000,0.0916,0.2030,-0.6888,0.724
7.526000,-0.0431,0.2982,-0.5674,0.642
7.529000,0.2839,0.6371,-0.6068,0.924
7.534000,0.1382,0.4020,-0.5366,0.685
7.546000,-0.1983,0.2556,-0.1968,0.379
7.548000,-0.4203,0.2743,-0.0486,0.504
7.559000,-0.6067,0.4077,-0.0868,0.736
7.560000,-0.7123,0.5052,0.0141,0.873
7.560000,-0.9649,0.1964,0.0985,0.990
7.591000,-1.0711,0.2466,0.0158,1.099
7.593000,-0.7346,0.1176,0.2992,0.802
7.594000,-0.3953,-0.0564,0.4178,0.578
7.594000,-0.1149,-0.0843,0.4891,0.509
7.595000,-0.1484,-0.2174,0.2288,0.349
7.596000,-0.2161,-0.3789,0.0766,0.443
7.597000,0.1624,-0.3919,0.0225,0.425
7.597000,0.5259,-0.1754,-0.1345,0.570
7.603000,0.5239,-0.3320,-0.1843,0.647
7.608000,0.2976,-0.4287,-0.0719,0.527
7.612000,0.1647,-0.3914,0.2288,0.482
7.617000,0.1945,-0.4498,0.5650,0.748
7.621000,0.1358,-0.5009,0.7028,0.874
7.626000,0.0580,-0.5160,0.7288,0.895
7.631000,0.0926,-0.4715,0.6931,0.843
7.637000,-0.1857,-0.4389,0.9758,1.086
7.641000,-0.2322,-0.4924,1.1971,1.315
7.646000,-0.3100,-0.3810,1.1278,1.230
7.651000,0.0445,-0.4441,1.1531,1.236
7.656000,0.3104,-0.3638,1.3398,1.423
7.661000,0.4667,-0.3697,1.5927,1.700
7.665000,0.5066,-0.4212,1.4124,1.558
7.675000,0.0814,-0.3867,1.3657,1.422
7.679000,-0.5417,-0.4837,1.2848,1.476
7.680000,-0.6341,-0.2196,1.1961,1.371
7.722000,-0.5219,0.0610,0.9876,1.119
7.723000,-0.3147,0.0450,0.4133,0.521
7.724000,-0.2063,0.1272,-0.1785,0.301
7.725000,-0.0028,0.1233,-0.4256,0.443
7.725000,0.1956,0.2676,-0.9404,0.997
7.726000,0.2650,0.3259,-1.3503,1.414
7.727000,0.2055,0.2765,-1.2258,1.273
7.728000,0.2467,0.4543,-1.1386,1.250
7.728000,0.2760,0.5077,-1.2363,1.365
7.730000,-1.2073,0.5729,-1.6217,2.101
7.736000,-1.9558,0.2084,-0.9726,2.194
7.740000,-0.9862,0.2535,-1.8768,2.135
7.745000,-0.2275,0.5163,-1.5085,1.611
7.748000,-0.1635,0.4252,-0.5591,0.721
7.756000,-0.4349,0.4204,-0.2635,0.660
7.764000,-0.7858,0.3608,0.0970,0.870
7.766000,-1.3314,0.2132,0.0012,1.348
7.820000,-1.9265,0.1092,0.1929,1.939
7.822000,-2.4673,0.3095,0.1915,2.494
7.822000,-2.3307,0.4913,0.2411,2.394
7.823000,-2.1410,0.4346,0.3394,2.211
7.825000,-1.0044,0.6846,0.5297,1.326
7.825000,-0.8796,0.5215,-0.2423,1.051
7.826000,-0.2619,1.7835,1.4545,2.316
7.826000,0.4432,2.4516,-1.0871,2.718
7.827000,-1.6427,2.2825,-1.8284,3.354
7.827000,-2.3796,2.5681,-0.9783,3.635
7.828000,-1.4036,3.2629,0.3368,3.568
7.829000,-1.0149,3.5825,0.8236,3.814
7.829000,-1.9982,1.9980,-1.7912,3.346
7.831000,-1.5545,3.4664,-2.5284,4.563
7.837000,-2.5872,3.6596,-3.6761,5.797
7.841000,-2.5760,3.4234,-2.8893,5.168
7.846000,-2.6937,3.3822,-0.7040,4.381
7.853000,-3.3727,3.7204,-0.4421,5.041
7.856000,-4.0925,3.7925,-2.5399,6.130
7.860000,-4.5672,3.8619,-4.0485,7.222
7.867000,-4.9413,3.8716,-3.8341,7.356
7.871000,-5.1749,3.6498,-2.5553,6.829
7.875000,-4.8909,3.8308,-1.3863,6.365
7.880000,-4.6768,4.0509,-1.3280,6.328
7.886000,-5.2055,4.2431,-2.1285,7.045
7.890000,-6.3600,4.6447,-2.6229,8.301
7.895000,-6.9506,5.2081,-2.6870,9.091
7.900000,-7.2983,5.1691,-1.7134,9.106
7.907000,-7.2449,4.8989,-0.2256,8.749
7.909000,-6.6277,5.0939,2.8741,8.839
7.916000,-6.1198,5.7463,5.8233,10.217
7.939000,-6.4185,6.4367,5.3326,10.539
7.940000,-7.6448,7.1844,1.9640,10.673
7.940000,-8.6136,8.0975,1.0388,11.868
7.941000,-8.5446,9.0045,1.9443,12.565
7.942000,-8.9866,9.5468,3.0929,13.471
7.944000,-9.9577,10.2343,3.4164,14.682
7.949000,-11.0557,10.2116,4.0057,15.574
7.978000,-11.1221,10.3879,6.3505,16.491
7.979000,-11.7874,10.7419,3.2043,16.266
7.980000,-12.4257,11.0526,2.1594,16.770
7.981000,-11.2604,10.3514,1.3822,15.358
7.981000,-8.8582,10.6020,0.7641,13.837
7.982000,-7.7418,11.3760,1.5090,13.843
7.983000,-7.0833,11.2682,4.3334,13.997
7.988000,-7.1604,11.0608,5.2697,14.191
7.992000,-7.5378,11.7518,6.9453,15.594
7.996000,-7.8431,11.4598,7.7239,15.890
8.003000,-7.2671,11.0021,7.4154,15.128
8.006000,-5.4218,11.1440,8.0278,14.766
8.014000,-2.3797,14.0269,5.9689,15.429
8.029000,-0.6264,16.2829,4.4660,16.896
8.033000,-3.5208,15.5276,3.2849,16.257
8.034000,-8.7340,14.5382,1.2183,17.004
8.035000,-13.5272,12.6612,-2.0107,18.637
8.069000,-20.1840,10.7127,-5.1096,23.415
8.072000,-23.1742,5.0785,-1.4464,23.768
8.074000,-11.5306,3.7343,7.2109,14.103
8.076000,-0.7717,5.7083,10.5599,12.029
8.077000,3.5665,7.1470,7.1257,10.704
8.078000,4.2871,7.2396,1.9410,8.635
8.080000,-0.1104,7.1864,1.5073,7.344
8.080000,-4.2583,7.8134,5.2336,10.323
8.082000,-7.9714,6.0281,7.9439,12.767
8.083000,-13.0260,2.8351,7.5045,15.298
8.085000,-15.5749,1.1812,6.1704,16.794
8.089000,-16.7601,0.3580,3.8473,17.200
8.095000,-17.3611,0.0356,1.5497,17.430
8.100000,-17.6186,-0.1355,0.1141,17.620
8.104000,-18.2459,-0.9062,-1.1679,18.306
8.110000,-18.4363,-1.6299,-1.8646,18.602
8.114000,-17.1397,-1.5570,-1.6170,17.286
8.119000,-14.6695,-1.4813,-1.3083,14.802
8.124000,-12.0877,-1.7069,-0.8079,12.234
8.129000,-10.2208,-1.9924,0.0857,10.414
8.136000,-8.8200,-2.3362,0.2351,9.127
8.140000,-8.2463,-2.6688,0.1625,8.669
8.144000,-7.9274,-2.7978,-0.0364,8.407
8.163000,-8.3149,-2.9913,0.3649,8.844
8.164000,-8.8429,-3.2008,0.8778,9.445
8.165000,-9.5804,-3.4591,0.9833,10.233
8.166000,-9.4543,-3.1990,0.7267,10.007
8.172000,-8.9044,-2.7779,0.2737,9.332
8.173000,-8.1087,-2.1810,-0.2742,8.401
8.178000,-6.9221,-1.5989,-0.7469,7.144
8.183000,-5.8638,-0.9168,-1.1243,6.041
8.187000,-5.0412,-0.2087,-1.3218,5.216
8.192000,-4.2128,0.4564,-1.3525,4.448
8.199000,-3.7398,1.1460,-1.2581,4.109
8.202000,-3.6418,1.7555,-1.0461,4.176
8.207000,-3.6115,2.1756,-0.5401,4.251
8.213000,-3.3472,2.6846,-0.1516,4.293
8.218000,-2.7620,3.2946,0.4116,4.319
8.222000,-2.1295,4.0202,1.0765,4.675
8.227000,-1.6471,4.7789,1.4357,5.255
8.232000,-1.3227,5.5303,1.4188,5.861
8.237000,-0.9422,6.4896,1.3415,6.693
8.241000,-0.4728,7.5913,1.2465,7.707
8.249000,0.2140,8.7537,0.9976,8.813
8.252000,0.9305,9.8257,0.4526,9.880
8.257000,1.3491,10.5153,0.7697,10.629
8.261000,1.4809,10.9707,0.7385,11.095
8.267000,2.3094,11.4522,0.7253,11.705
8.271000,3.4034,11.6746,0.7253,12.182
8.276000,4.6481,11.7404,0.8369,12.655
8.286000,5.8237,11.7495,0.9362,13.147
8.289000,6.8402,11.6442,1.0794,13.548
8.290000,7.7162,11.5100,1.2149,13.910
8.301000,8.4813,11.2944,1.2331,14.178
8.302000,9.8159,11.1330,0.9870,14.875
8.316000,11.5982,11.1499,0.8141,16.109
8.318000,13.6640,11.2611,0.9109,17.730
8.319000,15.8978,11.2635,0.6398,19.494
8.319000,17.2614,10.9209,-1.1828,20.460
8.325000,16.8659,10.5930,-2.4197,20.063
8.331000,17.9220,11.1831,-2.6656,21.292
8.334000,21.1381,10.2188,-2.8574,23.652
8.339000,24.3033,7.9439,-3.5363,25.812
8.345000,26.5004,5.9235,-4.9410,27.600
8.348000,28.2292,3.3701,-5.4999,28.957
8.354000,29.6915,0.6414,-4.5231,30.041
8.358000,31.1762,-1.8505,-3.3600,31.411
8.364000,33.2115,-3.3448,-3.9339,33.611
8.369000,34.4421,-4.8333,-5.8556,35.269
8.373000,35.2102,-5.3963,-7.5014,36.403
8.391000,36.1267,-5.0082,-7.4780,37.231
8.393000,36.2266,-4.4117,-3.2044,36.635
8.412000,35.3244,-3.6646,4.3261,35.776
8.413000,31.1170,-4.1843,7.6370,32.313
8.414000,22.2702,-7.1413,3.2693,23.615
8.415000,20.3476,-5.7512,1.8277,21.224
8.416000,16.1599,1.3402,-1.3989,16.276
8.417000,6.3317,19.4382,11.3568,23.386
8.418000,9.3775,4.5863,-11.1208,15.253
8.422000,15.1229,-5.7760,4.2508,16.737
8.432000,10.7344,-22.7197,-12.6186,28.118
8.435000,14.6046,-3.2484,-16.6353,22.374
8.441000,15.0619,20.4986,-13.6150,28.852
8.446000,1.9375,13.9942,6.3167,15.475
8.453000,-16.8241,5.4210,13.7882,22.418
8.455000,-25.1748,3.5674,-1.3907,25.464
8.456000,-15.6220,2.6701,-17.3967,23.533
8.462000,3.9311,12.8013,-28.7958,31.757
8.466000,23.5882,12.0666,-25.3033,36.637
8.470000,21.5981,10.3722,-8.2780,25.349
8.482000,15.5080,6.2399,-0.9886,16.745
8.483000,10.8777,5.0542,0.3279,11.999
8.485000,8.1877,3.9203,-0.6019,9.098
8.517000,6.6371,4.9545,-5.9773,10.214
8.519000,7.5734,5.4030,-11.4016,14.715
8.520000,11.8745,2.5852,-6.2503,13.666
8.521000,16.2084,2.3645,10.7037,19.567
8.521000,24.4841,3.7756,23.9183,34.436
8.523000,24.0145,6.3855,25.1229,35.336
8.524000,15.0837,7.0006,3.0586,16.908
8.525000,4.2200,3.2379,-17.2918,18.091
8.530000,-2.2675,0.4297,-23.0880,23.203
8.534000,0.3406,0.1100,-15.8596,15.864
8.538000,5.2334,1.0656,-1.2820,5.492
8.544000,4.8579,1.4581,10.1062,11.308
8.548000,1.8538,1.1249,9.6190,9.860
8.553000,1.2461,1.1712,1.3432,2.175
8.558000,0.5356,1.2794,-5.9942,6.153
8.564000,-0.7685,0.7019,-6.9191,6.997
8.568000,-1.0059,0.4147,-3.2141,3.393
8.572000,-0.7406,0.4101,1.4995,1.722
8.577000,-0.9521,0.4102,4.4927,4.611
8.582000,-1.2221,0.2835,3.6401,3.850
8.588000,-0.9659,0.2119,1.0435,1.438
8.596000,-0.6883,0.3915,-0.6811,1.044
8.597000,-0.7420,0.5757,-0.8238,1.249
8.603000,-1.2320,0.6666,-0.2976,1.432
8.623000,-1.7550,0.6979,0.0181,1.889
8.624000,-1.7166,0.6458,0.3371,1.865
8.625000,-1.1792,0.5701,0.2698,1.337
8.626000,-0.5323,0.8533,0.2762,1.043
8.627000,0.0059,1.0764,-0.0957,1.081
8.631000,0.2549,1.1033,-0.7745,1.372
8.637000,-0.0947,1.0776,-1.1705,1.594
8.642000,-0.3544,1.0951,-1.1849,1.652
8.647000,-0.5728,1.0648,-0.8430,1.474
8.652000,-0.5872,1.1062,-0.3335,1.296
8.657000,-1.1289,0.6506,0.6686,1.464
8.661000,-1.3093,0.3438,1.6123,2.105
8.666000,-1.7126,0.0424,2.4109,2.958
8.670000,-1.6229,-0.1366,2.8371,3.271
8.675000,-1.0498,0.2777,1.4023,1.774
8.681000,-0.9342,0.4431,0.5277,1.161
8.688000,-0.6632,0.1472,-0.0259,0.680
8.693000,-0.7402,-0.1747,-0.4793,0.899
8.696000,-0.5524,-1.4735,1.7307,2.339
8.701000,0.4934,-0.2179,1.6247,1.712
8.706000,1.0012,0.0946,0.2265,1.031
8.710000,0.8257,-1.8063,1.2130,2.327
8.714000,1.1919,-1.4820,-1.0392,2.167
8.720000,1.4219,-1.2728,-1.3325,2.327
8.733000,1.9389,-1.2717,-1.0809,2.558
8.735000,2.3852,0.2301,-1.7148,2.947
8.736000,3.1983,-0.3948,-0.5090,3.263
8.775000,3.2567,-4.4159,0.8327,5.550
8.777000,3.3104,-4.0878,1.5609,5.487
8.778000,3.1116,-1.7482,2.6871,4.468
8.778000,1.5114,-1.0418,1.9483,2.677
8.779000,0.4736,-1.6221,0.8724,1.902
8.780000,-0.0969,-1.5085,0.1259,1.517
8.781000,-0.3523,-1.1678,-0.0455,1.221
8.782000,-0.4604,-0.9205,0.6731,1.230
8.782000,-0.3570,-0.8693,1.1999,1.524
8.783000,0.1635,-0.4833,1.0045,1.127
8.790000,0.6330,-0.0377,-0.1193,0.645
8.794000,0.5601,0.0704,-1.7965,1.883
8.798000,0.3660,0.2118,-3.9723,3.995
8.803000,0.0404,0.5584,-5.9484,5.975
8.807000,1.2321,-0.4246,-7.1500,7.268
8.814000,1.7871,0.7721,-5.5231,5.856
8.817000,-0.6382,3.4794,-2.1400,4.134
8.829000,-3.4282,1.0598,-0.3422,3.605
8.830000,-3.2252,0.7257,0.5043,3.344
8.832000,-2.3433,2.0925,1.3863,3.434
8.874000,-2.4538,2.3283,1.3583,3.645
8.876000,-3.3375,2.4069,1.8749,4.522
8.877000,-4.5717,2.5488,1.5231,5.451
8.878000,-5.7287,2.3745,1.1997,6.316
8.878000,-5.5558,2.7378,0.4161,6.208
8.879000,-4.8286,2.9141,0.3610,5.651
8.880000,-3.5293,2.9295,-0.4249,4.606
8.881000,-4.1184,3.1689,0.0760,5.197
8.883000,-2.9521,3.8881,-1.1416,5.014
8.885000,-1.4961,3.9867,-2.3133,4.846
8.885000,-1.9494,4.1750,-3.4723,5.770
8.890000,-3.5129,4.1950,-4.2425,6.924
8.896000,-4.2925,4.3820,-4.9419,7.877
8.900000,-5.3556,4.3896,-4.4960,8.256
8.905000,-6.1494,5.8464,-3.3665,9.128
8.910000,-6.8972,7.2957,-2.2471,10.288
8.914000,-8.4043,7.2685,-1.3490,11.193
8.921000,-9.6027,7.2707,-1.1862,12.103
8.924000,-10.3859,7.3917,-1.3024,12.814
8.931000,-11.3093,7.7179,-1.7582,13.804
8.934000,-11.9558,8.1595,-2.5525,14.698
8.944000,-12.8107,8.8341,-3.2374,15.895
8.947000,-13.3537,8.0269,-3.5602,15.982
8.950000,-13.0976,8.4310,-2.6602,15.802
8.977000,-12.5891,9.0152,-0.5000,15.492
8.979000,-11.1730,9.9538,3.5261,15.374
8.980000,-9.0788,12.1599,6.3237,16.440
8.981000,-9.4078,13.6503,5.8204,17.570
8.982000,-11.3375,13.9106,3.2335,18.235
8.984000,-13.4051,13.2993,1.6990,18.959
8.985000,-15.8223,12.1200,2.3354,20.067
8.990000,-18.0579,11.7588,1.9179,21.634
8.993000,-19.2106,11.9756,1.1582,22.667
9.001000,-18.7235,9.7854,2.2856,21.250
9.005000,-16.5156,7.2186,4.9116,18.682
9.007000,-13.3450,6.9263,3.2666,15.386
9.013000,-9.0563,9.4293,3.1084,13.438
9.018000,-4.8779,13.7337,2.6063,14.805
9.022000,-1.2809,13.5256,4.0407,14.174
9.027000,0.0069,13.2676,5.7182,14.447
9.032000,0.3312,13.3449,8.1839,15.658
9.042000,1.2167,14.0684,11.5245,18.227
9.044000,0.6192,13.8943,8.2844,16.188
9.048000,-0.2668,14.0158,1.9464,14.153
9.073000,0.0101,13.8980,0.5698,13.910
9.074000,-1.0638,12.5258,-1.2094,12.629
9.075000,-9.8098,12.1564,-8.8751,17.966
9.077000,-21.8732,11.9309,-7.1436,25.919
9.078000,-21.7803,7.6986,16.0523,28.130
9.079000,-9.9397,8.1002,24.7165,27.845
9.081000,-0.9897,2.7843,12.8430,13.179
9.086000,-2.2501,3.1090,0.0677,3.838
9.091000,-1.0547,8.2914,4.8866,9.682
9.096000,-2.2041,12.9298,12.6363,18.213
9.100000,-5.9575,12.5618,15.6591,20.940
9.105000,-10.7311,7.4986,12.7686,18.287
9.110000,-15.5865,1.1939,8.9047,17.990
9.115000,-17.7327,-0.5762,6.5534,18.914
9.120000,-17.4926,-0.6776,3.6114,17.874
9.125000,-16.1475,-1.3409,0.1202,16.204
9.129000,-13.0168,-1.0901,-3.5570,13.538
9.137000,-9.3447,-0.0567,-3.7719,10.077
9.139000,-6.4329,0.6910,-2.6165,6.979
9.144000,-4.9460,0.3095,-1.4739,5.170
9.149000,-4.9395,-0.7672,-0.3211,5.009
9.159000,-5.8107,-2.1995,1.1555,6.320
9.161000,-7.3918,-3.5486,2.1506,8.477
9.171000,-9.4091,-4.7382,3.3445,11.053
9.172000,-10.7723,-4.9734,3.5892,12.396
9.174000,-11.4274,-4.6181,2.7702,12.633
9.198000,-11.8182,-4.1212,1.5373,12.610
9.201000,-11.9544,-3.4025,0.6255,12.445
9.203000,-11.8400,-2.7101,0.2457,12.149
9.204000,-11.3115,-2.2612,0.0760,11.536
9.206000,-10.2294,-2.0456,-0.1736,10.433
9.208000,-8.7715,-1.7527,-0.3575,8.952
9.209000,-7.2150,-1.1994,-0.1099,7.315
9.213000,-5.8887,-0.4394,0.2632,5.911
9.217000,-4.8655,0.3927,0.8075,4.948
9.223000,-4.4003,0.8807,1.2217,4.651
9.227000,-4.6891,0.9442,1.3724,4.976
9.233000,-3.6935,1.7560,2.4383,4.761
9.237000,-4.4775,1.8557,-2.5425,5.473
9.243000,-5.0504,3.8880,1.2300,6.491
9.247000,-2.8323,5.4451,1.3313,6.280
9.252000,-1.7675,6.5553,-1.1164,6.881
9.257000,-0.6456,8.0554,-0.9790,8.140
9.262000,1.2126,9.5263,-1.0423,9.660
9.269000,3.5211,10.4946,-1.2083,11.135
9.274000,5.4017,10.6811,-1.0849,12.018
9.275000,6.8823,10.3569,-0.5903,12.449
9.281000,8.4223,10.2948,0.1456,13.302
9.303000,9.6616,10.3393,0.8668,14.177
9.305000,10.3044,10.3231,1.1365,14.630
9.306000,10.7664,10.0316,1.0501,14.753
9.307000,10.8623,9.8666,1.2781,14.730
9.308000,11.1899,9.8014,2.0418,15.015
9.310000,11.6783,9.9240,2.7504,15.570
9.317000,12.1043,9.9612,3.5952,16.083
9.321000,12.4213,10.0772,3.9897,16.485
9.325000,12.9489,10.5034,4.2743,17.212
9.330000,13.1994,10.8065,3.3530,17.385
9.335000,11.7296,10.9536,2.0631,16.181
9.340000,10.3593,12.5670,2.7653,16.519
9.344000,9.8054,14.3505,0.4400,17.386
9.351000,11.7717,14.0772,-1.5279,18.414
9.354000,14.7768,12.4072,-1.5453,19.357
9.360000,17.3268,11.0160,-2.1988,20.650
9.365000,19.1402,9.2199,-3.1973,21.484
9.370000,20.0056,6.1281,-3.6309,21.236
9.374000,21.2150,2.4565,-2.2513,21.475
9.378000,24.4330,-0.4095,-1.1788,24.465
9.385000,30.0863,-2.3565,-1.4761,30.214
9.389000,37.1011,-3.4675,-3.9566,37.472
9.393000,43.0225,-4.1521,-7.5480,43.877
9.411000,43.7336,-4.7677,-8.4563,44.798
9.417000,43.7040,-5.1699,-5.5648,44.359
9.420000,40.2384,-5.4093,0.1499,40.601
9.422000,34.9840,-4.7310,2.9593,35.426
9.423000,29.1338,-3.1710,2.3990,29.404
9.424000,23.1777,-2.5154,-0.3413,23.316
9.428000,21.0854,-0.3306,-3.3178,21.347
9.444000,21.6134,2.1893,-5.4416,22.395
9.446000,23.4318,4.3703,-7.0492,24.856
9.447000,25.8825,5.9334,-8.4152,27.855
9.449000,27.6204,6.1416,-8.9852,29.687
9.456000,15.7108,13.4130,-4.6233,21.169
9.459000,-7.4347,9.2544,5.7719,13.200
9.462000,6.9905,7.9767,-16.5921,19.692
9.467000,5.4123,-9.6218,-14.3483,18.104
9.471000,-18.1267,-4.7735,-21.3553,28.415
9.476000,-35.0831,10.0569,-3.9711,36.712
9.483000,-36.3350,-0.1989,34.0762,49.814
9.486000,-35.1737,-10.1489,16.1334,40.006
9.491000,-20.8938,-7.0878,3.6525,22.364
9.499000,5.3733,3.0878,-25.2363,25.986
9.501000,29.8630,13.4329,-40.0985,51.770
9.505000,39.3193,21.8834,-39.4405,59.837
9.510000,36.4674,20.2548,-22.2101,47.259
9.514000,20.5808,12.0587,-2.9789,24.039
9.520000,6.4257,5.8016,3.8929,9.492
9.525000,3.1495,2.3836,3.3052,5.150
9.531000,7.5927,1.0983,4.6939,8.994
9.534000,18.0395,3.0666,13.5857,22.790
9.539000,31.5040,5.7426,20.0997,37.808
9.550000,35.3349,9.9706,17.0806,40.493
9.552000,23.3783,10.3114,-0.4500,25.555
9.554000,7.8575,4.8768,-24.3904,26.085
9.559000,-4.7693,-0.2690,-29.6125,29.995
9.571000,-5.6516,-1.3879,-16.7641,17.745
9.574000,4.5566,0.3380,-0.1653,4.572
9.575000,9.9073,2.8526,9.4223,13.967
9.612000,5.1365,2.0045,7.8617,9.602
9.615000,1.2443,0.9603,0.5989,1.682
9.616000,1.0060,1.3655,-5.6146,5.865
9.616000,1.6204,1.6342,-7.2039,7.563
9.617000,1.8685,1.6327,-4.6217,5.246
9.618000,1.5957,1.3158,-1.0658,2.327
9.619000,0.7928,0.6907,1.4202,1.767
9.619000,-0.0728,0.2193,1.9447,1.958
9.620000,-0.1819,0.1808,1.5377,1.559
9.622000,0.3156,0.4960,0.5460,0.802
9.635000,0.6337,0.7295,-0.4765,1.077
9.636000,0.3500,0.7476,-1.3232,1.560
9.637000,-0.3898,0.7346,-1.3792,1.611
9.641000,-1.3256,0.6764,-0.7243,1.655
9.648000,-1.9857,0.7428,0.1875,2.128
9.656000,-1.6803,0.8308,0.5336,1.949
9.657000,-1.1728,0.9429,0.0667,1.506
9.663000,-1.0696,1.1435,-0.3958,1.615
9.667000,-0.2708,2.1109,-1.0868,2.390
9.672000,-0.8813,0.3885,-1.3132,1.629
9.678000,-0.7962,0.6520,-0.6482,1.216
9.682000,-0.3891,0.9511,-0.4156,1.108
9.692000,-0.5507,0.2461,-0.3516,0.698
9.693000,-0.0865,0.0965,0.0601,0.143
9.711000,0.3515,-0.1438,0.1961,0.427
9.724000,0.3264,-0.2237,0.2830,0.487
9.725000,0.0947,-0.5856,1.0882,1.239
9.725000,-0.2033,-0.6125,1.5171,1.649
9.726000,-0.5383,-0.7494,2.0639,2.261
9.727000,-1.0090,-1.3020,2.6286,3.102
9.727000,-1.1608,-1.3207,3.1212,3.582
9.733000,-1.0865,-1.0215,2.8287,3.198
9.737000,-0.8844,-1.0261,2.7675,3.081
9.742000,-0.9917,-1.4081,2.3038,2.876
9.749000,-0.8778,-1.2565,1.7122,2.298
9.750000,-0.9083,-1.4491,1.4955,2.272
9.754000,-0.7132,-1.8395,1.4621,2.456
9.763000,-0.1578,-2.0235,1.8222,2.728
9.765000,0.9976,-1.3465,1.1236,2.018
9.768000,2.3423,-0.7730,0.3867,2.497
9.773000,2.9541,-0.8121,-0.6430,3.130
9.778000,2.9455,-0.5838,-1.2195,3.241
9.783000,1.7745,-0.3156,-1.8983,2.618
9.788000,-0.5188,-0.4280,-2.0350,2.143
9.794000,-2.1171,-0.9057,-2.0939,3.112
9.798000,-2.6278,-1.3441,-1.7123,3.412
9.803000,-2.0526,-1.2245,-0.7560,2.507
9.807000,-1.0523,-0.9013,-0.1608,1.395
9.817000,-0.2347,-0.2341,0.1085,0.349
9.818000,0.2441,0.5473,-0.0108,0.599
9.822000,0.7420,0.9909,-0.7072,1.426
9.828000,0.9498,1.0178,-0.8742,1.644
9.853000,0.8994,1.2451,-0.5499,1.631
9.854000,0.5432,1.2879,0.1532,1.406
9.855000,-0.3960,0.9002,1.0260,1.421
9.855000,-1.2531,1.2134,1.1913,2.112
9.856000,-3.3713,1.3262,0.8536,3.722
9.857000,-4.3604,0.9501,-0.3319,4.475
9.864000,-4.3453,1.0898,-1.0403,4.599
9.867000,-3.7096,1.1829,-0.3224,3.907
9.872000,-3.8414,1.6310,-0.3035,4.184
9.877000,-3.5157,2.2663,1.2376,4.362
9.880000,-3.3457,3.3233,1.7034,5.014
9.885000,-3.0863,2.3307,2.4298,4.567
9.892000,-2.4861,0.4494,2.3839,3.474
9.895000,-0.2007,3.2846,0.7680,3.379
9.900000,1.4868,4.2772,-1.8284,4.883
9.905000,0.7326,4.2559,-5.2283,6.781
9.909000,-1.2584,5.0545,-8.2812,9.783
9.914000,-4.0222,5.3960,-8.5906,10.913
9.919000,-5.6441,6.1329,-7.5022,11.214
9.924000,-6.4018,6.6250,-5.5361,10.748
9.929000,-6.9094,6.8379,-3.5248,10.340
9.934000,-8.0182,7.0691,-2.4180,10.960
9.939000,-8.6318,6.9037,-2.5685,11.347
9.950000,-9.1584,7.8312,-2.8237,12.376
9.951000,-10.2647,8.0083,-2.9334,13.345
9.954000,-10.6437,8.8683,-2.3893,14.059
9.958000,-12.1055,7.8540,-4.4914,15.113
9.964000,-11.9467,9.0084,-3.0823,15.277
9.968000,-13.9199,8.9757,-3.4756,16.924
9.973000,-15.4894,9.2977,-4.9816,18.740
9.979000,-15.8709,9.4328,-5.7901,19.349
9.983000,-16.1827,10.3798,-5.2735,19.936
9.988000,-16.1898,11.3419,-3.9531,20.159
9.993000,-14.7474,12.1471,0.9233,19.128
9.997000,-13.7857,12.6679,2.5078,18.889
10.002000,-14.1730,13.0306,5.7859,20.103
10.007000,-15.5958,13.2419,5.5826,21.207
10.012000,-17.2797,12.8130,5.0759,22.103
10.017000,-18.3073,10.6439,5.3245,21.836
10.022000,-17.6370,8.6307,6.5155,20.688
10.028000,-15.8271,6.8067,6.4263,18.388
10.032000,-10.7463,7.7819,3.8390,13.812
10.037000,-6.0865,9.9580,2.1701,11.871
10.041000,-3.4320,14.6397,3.2834,15.391
10.046000,-0.0085,13.2775,8.8942,15.981
10.051000,-1.1605,12.6864,10.0443,16.223
10.056000,-3.1795,12.5613,8.7540,15.637
10.062000,-2.7785,14.6492,5.1404,15.772
10.066000,-2.3621,15.4229,2.7252,15.839
10.071000,-1.7690,14.4516,-0.2738,14.562
10.076000,0.4417,11.0962,3.0546,11.517
10.080000,3.5109,8.0630,-0.2779,8.799
10.086000,-2.3562,6.8796,-9.5699,12.019
10.096000,-13.9784,8.3289,-7.3309,17.847
10.106000,-15.3297,8.7570,17.4061,24.792
10.107000,-10.5707,11.3398,27.6716,31.718
10.108000,-3.6670,5.2652,19.0221,20.075
10.113000,-4.7623,1.5347,5.2391,7.245
10.115000,-4.4920,6.1897,5.8625,9.636
10.121000,-4.1170,12.4924,11.9220,17.752
10.126000,-7.3023,12.4153,12.8211,19.283
10.130000,-12.1960,6.3416,9.1756,16.527
10.135000,-16.9830,0.7234,5.6176,17.903
10.140000,-17.2355,0.3616,3.6530,17.622
10.145000,-15.7227,0.6930,1.4695,15.806
10.149000,-13.5296,0.8888,-1.3796,13.629
10.155000,-11.1740,0.8778,-4.8114,12.197
10.159000,-9.9466,0.4880,-7.4600,12.443
10.164000,-9.4442,0.0574,-8.0322,12.398
10.170000,-9.5235,-0.7194,-6.7096,11.672
10.174000,-10.0048,-1.8395,-4.1274,10.978
10.179000,-10.4673,-2.9504,-0.8616,10.909
10.183000,-10.4601,-3.7889,1.9636,11.297
10.193000,-10.3814,-4.4392,3.5620,11.839
10.194000,-9.9011,-4.2799,3.6302,11.381
10.198000,-9.3465,-3.7496,2.4707,10.369
10.221000,-8.7489,-2.9536,0.9954,9.288
10.224000,-8.5028,-2.3268,-0.4665,8.828
10.226000,-8.5077,-1.8778,-1.5169,8.844
10.227000,-8.3911,-1.5505,-2.4494,8.878
10.229000,-7.9412,-1.2698,-3.3877,8.726
10.234000,-7.3069,-0.9993,-4.2138,8.494
10.234000,-6.7278,-0.5735,-4.5258,8.129
10.239000,-6.2305,-0.1283,-4.4187,7.639
10.242000,-5.8468,0.3371,-3.8578,7.013
10.247000,-5.4909,0.9553,-3.2324,6.443
10.252000,-5.0240,1.7109,-2.6789,5.945
10.257000,-4.4634,2.6000,-2.5305,5.752
10.261000,-3.9104,3.6036,-2.6625,5.947
10.266000,-3.3371,4.6978,-3.0802,6.534
10.271000,-2.6538,5.8396,-3.6749,7.392
10.277000,-1.8559,6.9954,-4.2142,8.375
10.281000,-0.8770,8.2416,-4.7426,9.549
10.291000,0.3350,9.3655,-5.2882,10.761
10.294000,1.4905,10.1853,-5.6989,11.766
10.297000,2.0773,10.6849,-5.7671,12.318
10.302000,2.8568,11.0342,-5.7343,12.759
10.327000,4.3197,11.4458,-5.8410,13.557
10.331000,6.1380,11.8069,-5.6606,14.461
10.333000,8.1953,12.2078,-5.0952,15.561
10.335000,10.3461,12.5526,-4.7243,16.939
10.336000,12.5159,12.7239,-4.2969,18.358
10.338000,14.2863,12.7316,-3.3191,19.422
10.339000,15.0979,12.6763,-1.6193,19.780
10.341000,14.9874,12.3404,-0.1775,19.415
10.345000,13.9567,11.4230,0.8964,18.058
10.349000,13.7134,11.1186,1.4083,17.711
10.356000,13.6168,11.0522,1.0336,17.568
10.359000,14.3782,11.4306,-0.8627,18.388
10.364000,14.3713,11.4143,-2.7504,18.558
10.369000,14.6103,10.7691,-2.3070,18.296
10.374000,15.2856,10.1708,-1.9870,18.467
10.380000,16.1288,9.0155,-3.0936,18.735
10.384000,17.3449,7.2343,-5.3856,19.550
10.390000,19.3736,4.8000,-7.7560,21.413
10.394000,22.2749,1.7833,-9.7971,24.399
10.399000,26.7917,-1.1715,-10.4549,28.783
10.430000,32.9601,-2.9156,-8.8953,34.264
10.432000,38.4597,-4.0942,-6.2353,39.176
10.433000,41.6743,-5.0393,-4.7548,42.246
10.434000,43.4019,-5.7447,-2.4574,43.849
10.436000,43.2739,-6.0009,0.8270,43.696
10.437000,40.6260,-5.7743,3.4611,41.180
10.439000,35.1527,-4.5947,3.2785,35.603
10.440000,29.5721,-2.7077,-0.8156,29.707
10.443000,26.5615,0.0264,-4.2104,26.893
10.447000,24.8554,2.1927,-6.7148,25.840
10.452000,24.6057,3.4913,-7.3509,25.917
10.457000,25.7430,4.0760,-6.9278,26.969
10.461000,26.7048,4.3178,-6.0333,27.716
10.468000,8.3073,16.2382,6.8003,19.466
10.471000,-11.8097,5.3134,-4.8024,13.812
10.477000,8.3446,6.3889,-0.4692,10.520
10.482000,3.0365,-16.5446,-6.0605,17.879
10.486000,-13.1434,6.2658,-15.3845,21.182
10.491000,-34.9348,12.3054,8.5571,38.014
10.496000,-36.4745,-3.6633,25.6490,44.740
10.503000,-34.6707,-10.9750,10.3295,37.805
10.508000,-14.6000,-4.6193,-1.5340,15.390
10.511000,12.1221,4.1699,-23.9286,27.146
10.517000,29.4545,14.4829,-34.1289,47.351
10.527000,35.6854,17.4752,-28.4050,48.843
10.529000,28.6598,15.1736,-12.6802,34.820
10.530000,18.5277,10.8545,-4.5629,21.953
10.557000,10.4326,7.9597,-3.6183,13.612
10.559000,9.8600,6.1700,-4.7511,12.564
10.560000,14.9314,4.6809,-2.5307,15.851
10.561000,20.8158,3.8909,9.2958,23.127
10.562000,25.0626,4.5733,21.9079,33.601
10.563000,24.8038,7.2871,20.4807,32.982
10.564000,14.7223,6.9278,5.8164,17.279
10.570000,3.4530,3.5777,-16.5348,17.266
10.574000,-3.5234,0.2603,-24.7856,25.036
10.579000,-3.4808,-1.3649,-18.6014,18.973
10.585000,2.1806,-0.4141,-4.5181,5.034
10.589000,5.8322,0.8944,10.2851,11.857
10.593000,6.8067,1.9059,12.2862,14.174
10.600000,6.6957,2.0371,3.7409,7.936
10.603000,4.4507,1.8039,-4.6217,6.665
10.608000,0.0780,1.6189,-8.0713,8.232
10.614000,-3.4296,0.7824,-6.5754,7.457
10.623000,-1.8572,0.6981,-2.6206,3.287
10.626000,2.1911,1.5392,0.2486,2.689
10.630000,2.6076,1.3274,2.3141,3.731
10.635000,0.7116,0.4916,2.3417,2.496
10.638000,-0.5597,0.0700,0.9450,1.101
10.643000,-0.4939,0.1531,-0.4821,0.707
10.651000,0.2639,0.4610,-1.1865,1.300
10.654000,0.4571,0.7088,-0.8068,1.167
10.658000,0.0220,0.7603,-0.1555,0.776
10.662000,-0.2885,0.7042,0.1877,0.784
10.669000,-0.8096,0.6243,-0.1278,1.030
10.672000,-1.3463,0.7382,-0.7243,1.698
10.677000,-1.7102,0.6442,-0.7872,1.990
10.689000,-1.7423,0.6534,-0.5087,1.929
10.691000,-1.8609,0.6963,0.0969,1.989
10.693000,-1.8534,0.5362,0.5954,2.019
10.727000,-0.8010,1.5236,0.7220,1.867
10.733000,-1.2542,0.0243,0.5171,1.357
10.734000,-0.8291,-0.0272,0.2464,0.865
10.735000,-0.4794,0.5071,-0.1147,0.707
10.737000,-0.3640,0.1256,-0.4067,0.560
10.737000,-0.3395,-0.1766,0.0339,0.384
10.738000,-0.2387,-0.2274,0.7739,0.841
10.738000,-0.3356,0.0637,1.2328,1.279
10.738000,-0.5224,-0.1905,2.1344,2.206
10.746000,-0.6441,-0.5949,2.4780,2.629
10.748000,-0.4882,-0.4922,2.6737,2.762
10.750000,-0.4944,-0.7958,2.0788,2.280
10.755000,-0.7943,-1.0154,2.0391,2.412
10.759000,-1.0965,-1.0481,1.9394,2.462
10.766000,-0.9390,-1.3816,1.9689,2.582
10.770000,-0.2721,-0.8660,0.5141,1.043
10.775000,-0.0984,-1.1992,-0.0259,1.204
10.781000,0.2561,-1.2761,0.0355,1.302
10.784000,0.7980,-1.2833,0.2609,1.534
10.789000,1.4562,-0.8387,-0.6978,1.820
10.794000,1.9847,-1.1783,0.0620,2.309
10.799000,2.6240,-0.2534,-1.6706,3.121
10.804000,2.1620,-0.5966,-2.3367,3.239
10.809000,1.3523,-0.9375,-1.7503,2.402
10.819000,0.1463,-0.5852,-0.6030,0.853
10.819000,-1.0514,-0.6228,0.7389,1.428
10.826000,-1.6832,-0.8608,1.7162,2.553
10.828000,-1.6960,-0.7873,1.8582,2.636
10.849000,-1.5042,-0.7683,1.4154,2.204
10.850000,-1.2944,-1.1095,0.7873,1.878
10.851000,-0.5119,-0.4483,-0.2087,0.712
10.851000,0.4476,0.0833,-1.2248,1.307
10.852000,1.1534,0.6716,-2.1764,2.553
10.858000,1.0958,1.2684,-2.7118,3.188
10.862000,0.5196,1.6035,-2.2491,2.811
10.867000,-0.7139,1.9379,-1.1567,2.367
10.872000,-2.5302,1.7225,0.0681,3.062
10.878000,-3.6867,1.6994,0.4953,4.090
10.882000,-4.9037,1.4865,0.2413,5.130
10.890000,-5.4617,1.7155,0.1737,5.727
10.894000,-4.2697,2.7324,-0.4828,5.092
10.901000,-3.7322,3.0041,-0.2060,4.795
10.903000,-3.5830,2.2568,1.0237,4.356
10.906000,-2.3571,1.3497,1.6811,3.194
10.915000,-0.4891,2.7917,0.8797,2.968
10.918000,0.9982,3.2055,-0.8618,3.466
10.920000,0.1418,2.9477,-2.7341,4.023
10.925000,-1.2707,3.0947,-3.8869,5.128
10.936000,-2.3955,3.3500,-4.2627,5.927
10.938000,-2.7473,3.7857,-4.0326,6.176
10.941000,-3.2438,4.4810,-3.7870,6.704
10.962000,-4.2935,5.3736,-3.8495,7.882
10.963000,-5.5373,5.8406,-4.1622,9.061
10.965000,-6.3281,6.9511,-4.8546,10.580
10.966000,-7.3553,7.0629,-5.0851,11.395
10.966000,-8.6189,7.0165,-4.2071,11.883
10.970000,-10.1677,7.6234,-2.4190,12.936
10.974000,-11.2456,8.5020,-1.7810,14.210
10.980000,-12.0396,8.4747,-1.8002,14.833
10.984000,-12.8606,8.0429,-2.0820,15.311
10.990000,-13.9096,8.7750,-2.3817,16.618
10.994000,-14.8906,9.5270,-3.4987,18.020
10.999000,-15.7831,10.5815,-4.4663,19.520
11.004000,-16.5345,11.0238,-4.9648,20.483
11.009000,-16.3105,11.6902,-4.1098,20.484
11.014000,-16.0148,12.3988,-1.8741,20.340
11.019000,-12.9217,14.0573,4.1914,19.549
11.024000,-11.5519,15.3475,6.7913,20.374
11.030000,-13.2538,15.5788,9.0547,22.368
11.036000,-15.7193,15.1813,7.4514,23.089
11.038000,-18.3546,12.3407,3.8720,22.454
11.044000,-20.0621,10.5607,-0.5786,22.679
11.049000,-19.7972,7.4653,-0.9134,21.178
11.054000,-16.8882,5.5598,0.7938,17.798
11.058000,-11.6653,7.9199,3.3315,14.488
11.066000,-7.6320,12.7188,4.8497,15.606
11.069000,-1.3057,14.1356,6.8267,15.752
11.073000,1.4409,12.2071,7.6848,14.496
11.083000,0.3897,12.6251,7.0255,14.454
11.085000,-1.2022,14.3678,8.6512,16.814
11.092000,-0.7378,15.7061,5.2628,16.581
11.094000,-1.1424,14.8458,-0.0301,14.890
11.117000,1.6636,13.7944,-0.1933,13.896
11.121000,3.8766,10.4495,-3.5081,11.684
11.122000,1.5567,6.3938,-9.8401,11.838
11.123000,-9.9988,8.4257,-9.4832,16.152
11.124000,-16.7998,9.1665,7.7947,20.664
11.127000,-13.9438,9.0680,26.3581,31.167
11.128000,-5.8461,8.3977,25.0795,27.086
11.132000,-1.3212,2.4061,10.0859,10.453
11.136000,-1.7039,3.7766,3.9431,5.720
11.142000,-0.8622,10.2975,8.0417,13.094
11.146000,-3.0277,14.4239,11.6435,18.783
11.150000,-7.6983,12.9753,12.6587,19.694
11.156000,-14.5475,5.1908,10.7341,18.809
11.160000,-18.3623,-0.0900,6.3256,19.422
11.166000,-18.0842,-0.7043,3.3113,18.398
11.170000,-16.9951,-0.4439,2.7454,17.221
11.176000,-14.8759,-0.1571,0.9699,14.908
11.180000,-12.1661,0.1610,-1.0843,12.215
11.185000,-10.3821,0.3335,-3.3645,10.919
11.189000,-9.8296,-0.0282,-4.6730,10.884
11.195000,-9.8197,-0.5726,-4.9209,10.999
11.200000,-9.7645,-1.2413,-4.0625,10.648
11.205000,-9.6792,-1.8757,-2.3644,10.139
11.215000,-9.3991,-2.4432,-0.6773,9.735
11.217000,-8.9913,-2.7463,1.1078,9.466
11.219000,-8.6086,-2.8872,2.4595,9.407
11.227000,-8.1911,-3.0014,3.1830,9.286
11.258000,-7.8439,-2.9688,3.5199,9.096
11.260000,-7.6100,-2.9346,3.7307,8.969
11.260000,-7.2433,-2.7120,3.6422,8.549
11.261000,-6.8112,-2.4128,3.3440,7.962
11.262000,-6.4188,-2.2615,2.9274,7.408
11.262000,-5.8157,-1.8581,2.4240,6.569
11.263000,-5.1287,-1.4419,1.9030,5.657
11.264000,-4.3138,-0.7847,1.4267,4.611
11.269000,-3.6133,-0.1230,1.0847,3.775
11.272000,-3.0999,0.5803,0.9833,3.303
11.278000,-3.1147,1.0531,0.9955,3.435
11.281000,-3.4866,1.4762,1.0636,3.933
11.288000,-3.8271,2.4100,1.2085,4.681
11.292000,-3.7298,3.5848,1.2307,5.318
11.297000,-3.3039,4.7999,1.2104,5.951
11.301000,-2.6533,5.9097,1.0291,6.559
11.311000,-1.8578,6.9504,0.9298,7.254
11.312000,-0.9852,7.9817,0.8609,8.088
11.317000,0.0856,8.8820,0.9220,8.930
11.323000,0.5506,9.5939,0.9187,9.653
11.350000,1.3813,10.3518,1.2067,10.513
11.351000,2.5784,10.9046,1.7092,11.335
11.352000,4.1591,11.5199,2.3003,12.462
11.354000,6.4523,11.9699,0.3313,13.602
11.355000,9.4847,13.3682,-0.7679,16.409
11.358000,11.6438,14.3512,-1.0675,18.511
11.362000,13.2692,14.5208,-1.0416,19.698
11.364000,14.4330,13.9283,0.4006,20.062
11.367000,14.4820,12.9759,2.0886,19.557
11.370000,13.9718,12.0865,2.3074,18.618
11.379000,13.6185,11.7901,2.3648,18.168
11.381000,13.0528,11.6531,3.3052,17.807
11.385000,13.6394,12.1157,3.1252,18.509
11.390000,15.6995,12.7812,2.1965,20.363
11.394000,17.4187,12.4186,1.3928,21.438
11.399000,18.0312,11.2814,0.5291,21.276
11.404000,18.1940,9.6694,-0.5799,20.612
11.409000,18.3029,7.7281,-1.4097,19.918
11.414000,18.5541,5.4383,-1.8056,19.419
11.419000,19.8666,2.9779,-1.3786,20.136
11.425000,23.9029,0.6867,-1.8054,23.981
11.428000,29.9908,-1.1932,-3.8891,30.265
11.434000,37.0537,-3.1854,-6.7078,37.790
11.440000,43.8259,-4.3589,-9.4262,45.040
11.444000,43.7992,-4.9336,-8.2477,44.841
11.449000,43.7605,-4.7139,-4.7541,44.270
11.454000,43.7153,-4.7051,1.5049,43.994
11.461000,38.4162,-5.3562,4.4402,39.041
11.463000,30.3796,-5.7559,2.0285,30.987
11.469000,27.6683,-3.4879,-1.2218,27.914
11.489000,26.9163,-0.9193,-4.0553,27.236
11.493000,26.5850,0.9533,-5.6902,27.204
11.496000,27.1493,2.9710,-6.0521,27.974
11.498000,27.8153,4.4104,-6.1758,28.832
11.500000,28.6238,4.7039,-7.2392,29.897
11.502000,18.0236,13.4071,-5.0695,23.028
11.506000,-12.8948,11.7147,2.3440,17.579
11.510000,6.3448,18.6725,-22.9545,30.263
11.513000,8.2858,-7.1053,-10.3384,15.034
11.547000,-13.8167,-3.8231,-8.4517,16.642
11.550000,-36.1006,10.8954,12.4005,39.696
11.552000,-36.2010,-0.3286,7.3419,36.939
11.553000,-36.3954,-14.2709,-8.7160,40.053
11.555000,-20.9755,-8.4460,-0.4369,22.616
11.560000,14.0494,1.4554,-9.4964,17.020
11.562000,40.2603,15.0633,-24.7176,49.586
11.564000,40.5850,18.2049,-25.9634,51.504
11.566000,32.0986,17.2723,-15.4248,39.580
11.568000,18.1897,11.5335,-9.5801,23.573
11.569000,8.6255,7.4731,-6.3237,13.047
11.574000,6.1221,3.6645,-3.8741,8.119
11.580000,8.9710,3.0704,3.2032,10.008
11.584000,19.2123,1.8074,18.8816,26.998
11.585000,27.2252,3.2965,32.8032,42.757
11.589000,34.3735,8.5990,26.2381,44.090
11.594000,30.0531,10.2849,4.8750,32.136
11.599000,9.5646,5.1599,-15.4015,18.850
11.609000,-5.5675,0.3818,-27.8095,28.364
11.610000,-8.9068,-2.5823,-25.5091,27.142
11.614000,-2.8362,-1.5725,-7.9750,8.609
11.635000,4.8890,1.2248,11.0471,12.143
11.637000,10.2652,3.5825,14.1700,17.860
11.638000,10.2274,3.1843,3.7473,11.348
11.639000,4.9399,2.3072,-6.0814,8.168
11.640000,-0.8694,1.3523,-10.1826,10.309
11.644000,-3.7577,0.8941,-8.1902,9.055
11.648000,-0.5775,1.0251,-3.4070,3.604
11.653000,2.8682,1.6293,1.0107,3.450
11.658000,2.1434,1.0302,3.7351,4.428
11.664000,0.0413,0.1495,2.7310,2.735
11.670000,-0.8676,0.0535,0.1651,0.885
11.672000,-0.5385,0.3497,-1.4107,1.550
11.678000,0.2053,0.7460,-1.3018,1.514
11.682000,0.2412,0.9650,-0.7523,1.247
11.688000,-0.3775,0.7894,-0.5785,1.049
11.692000,-0.7785,0.5998,-0.6870,1.199
11.698000,-1.2762,0.6519,-0.8863,1.685
11.705000,-1.7446,0.6946,-0.9738,2.115
11.708000,-1.7804,0.7137,-0.4667,1.974
11.714000,-1.3720,0.8238,-0.1204,1.605
11.719000,-0.9758,1.1730,0.3362,1.562
11.732000,0.2709,2.5732,-0.0551,2.588
11.736000,-0.9186,-0.0195,-0.9514,1.323
11.739000,-0.9673,0.2087,-0.2251,1.015
11.741000,-1.0813,0.7475,-0.1720,1.326
11.745000,-1.1218,0.4827,-0.1316,1.228
11.749000,-1.1560,-0.0613,-0.0517,1.159
11.752000,-1.0093,-0.1958,0.9854,1.424
11.778000,-0.7701,-0.1986,1.1508,1.399
11.781000,-0.7344,-0.4069,3.0235,3.138
11.782000,-0.6839,-0.7297,3.5207,3.660
11.782000,-0.2723,-0.3758,2.7502,2.789
11.783000,-0.8422,-1.1934,3.4760,3.770
11.784000,-0.6038,-0.7839,1.9516,2.188
11.801000,-1.5729,-1.3738,3.4143,4.002
11.803000,-1.0496,-0.9851,1.6829,2.215
11.804000,-1.5550,-1.6817,1.2057,2.588
11.804000,-0.8396,-1.4328,0.3125,1.690
11.805000,-0.2484,-1.3106,-0.0595,1.335
11.810000,0.0802,-1.5420,-0.4135,1.598
11.814000,0.9612,-1.8085,0.9068,2.240
11.819000,2.4432,-0.6669,-0.7095,2.630
11.824000,2.6454,-0.8127,-1.3969,3.100
11.830000,2.5207,-0.7819,-1.3011,2.942
11.835000,1.4465,-0.6441,-1.2744,2.033
11.839000,-0.5804,-0.7411,0.0891,0.946
11.844000,-2.0113,-0.9070,0.9261,2.393
11.848000,-1.8881,-0.8307,1.2037,2.388
11.854000,-1.4481,-0.8735,1.0073,1.968
11.859000,-0.9617,-0.7338,0.1348,1.217
11.863000,-0.2989,-0.1757,-1.2470,1.294
11.873000,0.3697,0.5061,-2.0858,2.178
11.874000,1.0214,1.0437,-2.5460,2.935
11.878000,1.0412,1.3006,-2.4688,2.978
11.914000,-0.0675,1.3321,-1.5753,2.064
11.916000,-1.8607,1.4281,-0.3452,2.371
11.917000,-3.3560,1.3024,0.6310,3.655
11.918000,-4.0382,1.6608,0.7032,4.423
11.919000,-4.6163,1.4228,0.1901,4.834
11.921000,-4.0643,1.7627,0.3607,4.445
11.921000,-2.9369,2.5316,-0.1746,3.881
11.922000,-2.7028,2.3188,-0.2082,3.567
11.923000,-3.2103,3.3767,-0.5044,4.686
11.932000,-3.3208,2.8388,0.2912,4.379
11.937000,-1.5328,1.4210,0.3742,2.123
11.938000,-0.1325,2.5368,0.4183,2.574
11.941000,-0.5007,3.5614,-1.1177,3.766
11.946000,-1.4174,3.2953,-2.7815,4.539
11.951000,-2.3745,3.2745,-4.1038,5.762
11.956000,-3.0864,3.6064,-4.2009,6.339
11.961000,-3.5334,4.1955,-3.4915,6.502
11.969000,-4.1539,4.9728,-3.1545,7.207
11.973000,-5.1491,5.8574,-3.5820,8.582
11.976000,-6.5991,6.3765,-4.1107,10.055
11.981000,-7.8715,6.9734,-4.4888,11.434
11.988000,-8.8679,7.6656,-4.3403,12.500
11.991000,-9.6818,7.9062,-3.7804,13.059
11.996000,-11.0065,7.9454,-2.8367,13.868
12.007000,-11.9775,9.0393,-2.3944,15.195
12.012000,-13.5739,9.5262,-2.6438,16.793
12.049000,-14.2442,9.4971,-2.8943,17.363
12.051000,-15.8413,9.9949,-2.9470,18.961
12.053000,-16.8793,11.4533,-3.2778,20.660
12.055000,-16.9833,11.9486,-3.9323,21.134
12.056000,-16.8476,13.1481,-2.1584,21.480
12.058000,-15.5664,14.4348,0.8106,21.245
12.059000,-14.2710,15.7975,6.0147,22.122
12.060000,-15.0698,17.6124,9.1107,24.906
12.061000,-17.2033,16.4029,6.5500,24.656
12.062000,-19.8361,13.6565,3.6946,24.364
12.064000,-21.6079,12.1922,0.5317,24.816
12.065000,-22.0273,8.6314,0.8107,23.672
12.068000,-21.6523,3.7201,-0.8481,21.986
12.073000,-18.4727,2.8687,0.3514,18.697
12.078000,-12.1085,6.3931,3.4083,14.110
12.083000,-5.8628,11.8212,3.0557,13.544
12.088000,1.2094,12.7083,4.1972,13.438
12.092000,3.7955,10.9136,6.4257,13.221
12.105000,2.5892,11.9545,8.0750,14.657
12.107000,1.4206,13.6868,9.5289,16.738
12.114000,1.1311,14.7872,5.9010,15.961
12.118000,0.8601,15.3447,-0.1083,15.369
12.119000,3.4331,13.3977,-0.0809,13.831
12.148000,5.2889,10.2405,-5.3406,12.703
12.150000,1.1292,7.8160,-11.6012,14.034
12.152000,-8.3411,10.1345,-6.0497,14.453
12.153000,-13.9309,9.7420,12.6836,21.210
12.154000,-10.9783,9.5023,28.4127,31.908
12.155000,-1.3141,7.7440,23.0406,24.343
12.156000,-1.4075,3.1314,7.8761,8.592
12.157000,-2.7579,6.6253,6.4072,9.620
12.160000,-2.5210,13.0764,10.3671,16.877
12.166000,-5.2579,15.1412,11.3853,19.660
12.171000,-9.3365,11.1882,10.5676,18.001
12.176000,-14.3396,3.7763,9.7461,17.745
12.181000,-15.9079,-0.0021,8.0578,17.832
12.186000,-14.7443,-0.7022,6.1834,16.004
12.190000,-14.3250,-1.3238,4.8988,15.197
12.195000,-12.6229,-1.3712,3.2879,13.116
12.201000,-10.8990,-1.1321,1.5857,11.072
12.206000,-10.2730,-1.0670,-0.9953,10.376
12.211000,-10.7582,-1.1513,-2.4502,11.094
12.230000,-11.1283,-1.0703,-2.7903,11.523
12.233000,-10.8370,-1.3747,-2.5194,11.211
12.235000,-10.6382,-1.9384,-1.6524,10.939
12.237000,-10.0848,-2.2558,-0.8138,10.366
12.238000,-9.5283,-2.5033,0.0636,9.852
12.259000,-9.3504,-2.6735,1.1400,9.792
12.261000,-9.1185,-2.6434,2.0930,9.722
12.262000,-8.6987,-2.5656,2.5262,9.414
12.263000,-8.2728,-2.5401,2.6402,9.048
12.265000,-7.8576,-2.6407,2.5771,8.681
12.266000,-7.2954,-2.3770,2.6894,8.130
12.269000,-6.2251,-1.7709,2.8600,7.076
12.273000,-5.1484,-1.3396,2.9964,6.106
12.279000,-4.0254,-1.0628,3.1650,5.230
12.282000,-3.0628,-0.7654,3.3182,4.580
12.289000,-2.3207,-0.4750,3.5584,4.275
12.293000,-1.7335,-0.0434,3.5665,3.966
12.298000,-1.2886,0.5177,3.2433,3.528
12.303000,-1.1893,1.0369,3.3729,3.724
12.307000,-0.8478,1.8952,0.6342,2.171
12.323000,-1.7262,3.0113,3.9273,5.241
12.327000,-1.7403,3.7104,1.8408,4.493
12.329000,-1.4707,4.7155,1.5241,5.169
12.331000,-0.8115,6.0268,1.7615,6.331
12.333000,0.0449,7.2214,1.5791,7.392
12.358000,0.9372,8.0893,0.9861,8.203
12.360000,2.0274,9.3435,0.4264,9.570
12.361000,2.7765,10.5696,0.1875,10.930
12.362000,2.7395,11.3142,-0.0668,11.641
12.363000,3.0280,11.9265,-0.0768,12.305
12.364000,4.0381,12.4712,0.2309,13.111
12.369000,5.2290,12.7659,0.2858,13.798
12.371000,6.4105,12.8053,0.9321,14.351
12.376000,7.2465,12.5077,1.7333,14.559
12.381000,8.5485,12.2906,2.7561,15.223
12.385000,10.3656,12.2053,3.1662,16.323
12.392000,12.1952,12.2893,2.7663,17.533
12.396000,13.7469,12.6502,3.1991,18.954
12.400000,14.2143,12.4225,3.5922,19.216
12.406000,14.6332,12.1196,2.9215,19.224
12.410000,15.3689,11.8813,2.4997,19.586
12.416000,16.5686,11.3379,1.8629,20.163
12.419000,17.3909,10.1818,0.9053,20.173
12.424000,18.1384,8.9831,-0.2217,20.242
12.431000,19.0559,7.6714,-1.3742,20.588
12.434000,19.7231,6.1786,-2.1558,20.780
12.439000,20.7370,4.2613,-2.6443,21.335
12.463000,22.9706,2.0796,-2.7995,23.234
12.465000,27.1872,-0.0606,-3.8193,27.454
12.466000,33.1811,-1.9869,-4.9510,33.607
12.467000,38.5798,-3.8648,-5.9037,39.220
12.468000,42.9217,-4.9292,-5.1921,43.515
12.470000,43.6877,-4.7954,-3.7003,44.106
12.473000,43.6517,-4.4767,-0.8887,43.890
12.479000,40.7003,-3.4241,2.8466,40.943
12.485000,33.8501,-3.5571,4.1296,34.286
12.489000,27.0821,-4.1677,2.0929,27.481
12.494000,26.0598,-2.1854,-0.5502,26.157
12.498000,26.7386,-0.2526,-3.4860,26.966
12.505000,28.5128,1.9438,-4.8648,28.990
12.507000,29.5573,3.1655,-5.7782,30.283
12.513000,28.1768,5.3524,-7.3582,29.609
12.518000,2.2854,11.7677,11.0324,16.292
12.523000,-2.9738,0.8890,-22.2296,22.445
12.532000,19.2061,14.3267,-15.0242,28.282
12.536000,14.0210,-2.2421,-12.1049,18.659
12.538000,-6.0116,12.5819,-11.8643,18.309
12.572000,-36.3607,8.7888,18.0930,41.554
12.577000,-36.4640,-3.3791,9.4049,37.809
12.580000,-36.6467,-13.5665,-0.6977,39.083
12.581000,-30.6813,-7.4505,4.7181,31.924
12.582000,15.3497,2.6522,-13.8208,20.825
12.583000,40.7050,16.5180,-34.1683,55.653
12.584000,40.3300,19.6459,-30.1222,54.035
12.586000,28.1892,15.4336,-17.5334,36.609
12.587000,13.3828,9.2686,-9.8934,19.050
12.588000,7.5437,5.7709,-6.6469,11.593
12.592000,7.8514,3.5781,1.3457,8.733
12.596000,15.9636,3.5030,15.8456,22.764
12.600000,27.5589,1.7680,30.9735,41.497
12.604000,33.0157,3.8688,36.9459,49.699
12.610000,28.9888,7.7752,13.4126,32.874
12.615000,16.6915,6.1047,-7.0371,19.115
12.621000,1.2847,3.7208,-23.1955,23.527
12.625000,-4.2901,0.1114,-26.1366,26.487
12.629000,-0.0142,-0.1973,-16.4502,16.451
12.634000,5.1544,1.6848,1.7538,5.699
12.640000,6.3211,2.6056,13.0205,14.706
12.644000,5.7834,2.6128,5.7256,8.547
12.649000,4.0342,2.1339,-5.4054,7.074
12.654000,1.0165,1.9732,-9.4456,9.703
12.662000,-1.5739,1.5789,-8.3924,8.683
12.668000,-1.1976,1.2979,-3.7677,4.161
12.672000,1.4858,1.6483,0.3676,2.249
12.674000,1.7571,1.3648,1.9344,2.948
12.679000,-0.1105,0.5052,0.8899,1.029
12.685000,-1.3519,-0.0473,-0.7751,1.559
12.688000,-1.1570,0.0199,-0.7020,1.353
12.695000,-0.4093,0.4912,0.6005,0.877
12.699000,-0.2484,0.8137,0.7270,1.119
12.743000,-0.9386,0.5981,0.8058,1.374
12.744000,-1.5863,0.6075,0.1673,1.707
12.745000,-2.0277,0.3854,-0.5316,2.131
12.746000,-2.0011,0.3839,-0.3457,2.067
12.747000,-1.8389,0.5738,0.0599,1.927
12.747000,-1.6797,0.8714,0.3704,1.928
12.748000,-1.5782,0.7484,0.5127,1.820
12.748000,-1.3207,0.4943,0.6303,1.545
12.751000,-1.2490,0.5730,0.8091,1.595
12.752000,-0.4610,1.5432,0.1498,1.618
12.753000,-0.7163,0.7174,-0.7009,1.232
12.759000,-1.1857,0.0144,-0.0175,1.186
12.763000,-1.0625,0.1920,0.2818,1.116
12.766000,-0.9421,-0.1156,0.7813,1.229
12.774000,-0.6695,-0.0403,1.6157,1.749
12.777000,-0.5955,-0.4572,1.5216,1.697
12.781000,-0.5214,-0.6154,1.9290,2.091
12.786000,-0.4948,-0.7135,2.1132,2.285
12.791000,-0.0972,-0.5843,1.4939,1.607
12.796000,-0.0543,-0.9238,0.5509,1.077
12.801000,0.1285,-0.9356,-0.2538,0.978
12.807000,0.2127,-0.4839,-0.4873,0.719
12.811000,0.1648,-0.2554,0.1411,0.335
12.816000,-0.1200,-0.6345,0.5565,0.852
12.820000,-0.4459,-1.1423,1.0588,1.620
12.827000,-0.3900,-1.7808,2.7774,3.322
12.831000,0.3539,-1.5789,2.0559,2.616
12.835000,0.8331,-1.4127,1.0149,1.929
12.848000,1.6770,-1.2846,-0.3480,2.141
12.851000,2.4856,-1.0828,-1.7296,3.216
12.856000,2.7078,-0.6667,-2.0445,3.458
12.857000,1.8382,-0.2636,-2.6137,3.206
12.887000,0.6702,0.1170,-3.3537,3.422
12.889000,-0.2309,0.0428,-3.8185,3.826
12.889000,-0.3766,0.0257,-3.8615,3.880
12.890000,-0.3727,0.0107,-3.0314,3.054
12.891000,-0.2288,0.0554,-1.9397,1.954
12.892000,-0.5493,0.0305,-1.2898,1.402
12.893000,-0.7869,-0.0802,-0.6067,0.997
12.893000,-0.9466,0.2181,0.0535,0.973
12.898000,-0.7965,0.8030,0.9937,1.506
12.903000,-1.1033,1.2608,2.1581,2.732
12.909000,-2.1964,1.4342,3.1689,4.114
12.913000,-4.2382,1.3313,3.4551,5.628
12.918000,-5.3528,1.2854,1.9445,5.838
12.924000,-6.0282,1.4519,-0.0876,6.201
12.929000,-5.4823,1.7207,-1.1102,5.852
12.932000,-4.4180,2.1248,-1.7772,5.215
12.938000,-4.5764,2.2671,-0.8113,5.171
12.946000,-2.7798,2.9391,0.9806,4.163
12.948000,-2.6038,4.1952,1.8808,5.284
12.961000,-2.1177,3.3129,1.6367,4.259
12.963000,-1.5579,1.9379,0.7482,2.597
12.964000,-0.9596,3.4601,-1.8588,4.043
13.001000,-0.8968,4.3936,-3.4658,5.667
13.003000,-2.4017,3.9551,-5.0767,6.869
13.004000,-3.9140,3.8482,-5.0325,7.447
13.006000,-4.6747,4.3340,-4.6828,7.910
13.007000,-5.3781,5.0802,-4.3725,8.594
13.009000,-5.8370,5.9654,-4.6741,9.566
13.011000,-5.8057,6.5355,-5.3798,10.265
13.012000,-7.0066,7.2307,-5.1882,11.327
13.013000,-9.1772,7.8273,-4.7335,12.957
13.014000,-10.9301,8.3840,-3.6624,14.254
13.016000,-12.4843,8.7564,-2.6696,15.481
13.021000,-13.8143,9.1634,-1.6745,16.662
13.027000,-14.7391,9.6733,-1.4209,17.687
13.030000,-15.5810,9.7085,-2.1190,18.480
13.037000,-16.1704,10.3532,-3.4276,19.504
13.040000,-16.5036,11.1053,-2.6350,20.066
13.044000,-16.1329,12.2692,-0.3819,20.272
13.049000,-14.2534,14.2463,5.0717,20.781
13.055000,-13.1996,14.9854,9.0055,21.906
13.059000,-14.9250,15.5433,4.5790,22.030
13.064000,-17.3017,14.6004,1.2239,22.672
13.077000,-19.5058,13.6578,3.3027,24.040
13.081000,-21.4627,11.2381,4.0305,24.560
13.084000,-22.5184,9.0585,3.0828,24.467
13.117000,-21.1304,4.9777,3.5439,21.996
13.120000,-18.6464,2.2926,2.9399,19.015
13.121000,-13.0645,4.2015,3.7292,14.221
13.123000,-5.2712,10.3365,4.2652,12.362
13.124000,0.8466,14.1197,3.1403,14.489
13.126000,5.5772,12.5820,5.3641,14.771
13.127000,5.7210,13.5338,7.3612,16.434
13.128000,4.3660,15.6661,9.2262,18.698
13.129000,2.7563,17.2590,8.5335,19.450
13.129000,0.3085,15.6081,3.0441,15.905
13.132000,-0.5641,14.6950,0.5733,14.717
13.139000,0.7108,13.3832,0.6859,13.420
13.142000,-1.0299,10.3726,-8.7774,13.627
13.147000,-11.1985,7.4399,-11.0718,17.417
13.152000,-16.9927,6.7371,2.1328,18.403
13.157000,-11.5788,7.8665,21.0524,25.281
13.162000,-4.5016,10.7955,23.0732,25.869
13.169000,0.9366,6.8264,10.7962,12.808
13.172000,-0.3058,4.8006,4.5755,6.639
13.177000,-0.7524,9.3845,7.3629,11.952
13.181000,-3.0168,13.9700,11.9302,18.617
13.191000,-7.6648,13.7960,13.6464,20.864
13.194000,-13.6689,7.8645,12.1943,19.935
13.196000,-18.2207,1.2157,7.9928,19.934
13.210000,-18.1505,-0.5362,4.4969,18.707
13.213000,-16.7319,-0.6544,3.0658,17.023
13.217000,-15.5279,-0.8839,1.8496,15.663
13.218000,-13.8687,-0.6516,0.9628,13.917
13.220000,-12.3677,-0.1555,0.0377,12.369
13.248000,-11.3301,-0.0146,-0.3467,11.335
13.250000,-10.9708,-0.0803,-1.5116,11.075
13.251000,-10.4244,-0.4507,-1.9057,10.607
13.252000,-9.4972,-0.9891,-2.1222,9.782
13.253000,-8.9561,-1.9600,-0.9580,9.218
13.254000,-8.1054,-2.2335,0.2069,8.410
13.255000,-7.2950,-2.2981,2.0530,7.919
13.259000,-6.3846,-2.3024,3.4434,7.611
13.265000,-5.8464,-2.3558,4.0263,7.479
13.269000,-5.9973,-2.4668,3.9393,7.588
13.274000,-6.4067,-2.6146,3.5751,7.789
13.279000,-6.8824,-2.5866,3.1844,8.012
13.285000,-7.2228,-2.4287,2.7670,8.107
13.289000,-7.2960,-2.2040,2.3276,7.969
13.293000,-7.2635,-1.7131,1.8552,7.690
13.302000,-6.9350,-1.0586,1.5172,7.177
13.305000,-6.4546,-0.5056,1.0495,6.559
13.308000,-5.9329,0.1232,0.7025,5.976
13.313000,-5.2100,0.9519,0.9391,5.379
13.318000,-4.6112,1.7774,1.3957,5.135
13.323000,-4.0219,2.8030,1.8047,5.224
13.328000,-3.8035,3.7588,2.2378,5.797
13.342000,-3.5504,4.7528,2.3867,6.395
13.344000,-2.9557,5.9503,2.3437,7.045
13.346000,-2.0515,7.2076,2.1574,7.798
13.348000,-0.7573,8.3525,1.9575,8.612
13.387000,0.8235,9.2583,1.0789,9.357
13.389000,1.6458,9.9492,0.0382,10.084
13.390000,2.6637,11.2404,-0.5737,11.566
13.391000,3.6491,12.0075,-1.3788,12.625
13.392000,4.6442,12.0362,-2.0317,13.060
13.393000,5.9652,11.9462,-1.8353,13.478
13.393000,7.7782,12.1414,-0.6983,14.436
13.394000,9.7101,12.1168,0.8820,15.552
13.396000,11.5510,12.1449,2.3693,16.927
13.397000,12.6496,11.7500,3.1442,17.549
13.401000,13.0298,11.3144,3.4227,17.593
13.405000,13.2101,11.3779,3.0246,17.695
13.411000,13.5809,12.0234,2.5561,18.318
13.415000,13.0768,11.9454,2.9775,17.960
13.420000,12.9423,12.0614,2.3505,17.847
13.426000,13.4387,12.0592,1.4334,18.113
13.430000,13.9976,11.6957,0.6546,18.252
13.435000,14.1712,10.9092,-0.1176,17.884
13.441000,14.4617,9.7242,-1.0944,17.461
13.444000,15.3172,8.5453,-2.0416,17.658
13.460000,16.9254,7.0933,-2.7789,18.561
13.462000,19.2397,5.5215,-3.1123,20.257
13.464000,22.3400,3.4021,-2.9252,22.786
13.474000,27.6153,0.9806,-3.7365,27.884
13.475000,34.4603,-1.5613,-5.0002,34.856
13.476000,40.9656,-3.7193,-7.8025,41.868
13.504000,43.5869,-5.2082,-8.4418,44.701
13.505000,43.5451,-4.9298,-6.1008,44.246
13.506000,43.4963,-3.9728,-0.4617,43.680
13.507000,43.4449,-3.4535,4.6297,43.827
13.510000,35.9968,-5.0665,4.8277,36.671
13.511000,27.5278,-5.4420,1.6983,28.112
13.512000,26.4933,-2.2120,-2.5316,26.706
13.513000,27.1584,0.6025,-6.1462,27.852
13.518000,27.6366,2.1373,-8.2289,28.915
13.523000,28.4822,3.5111,-8.4982,29.930
13.528000,29.2224,4.4402,-7.2933,30.444
13.533000,19.2650,12.1803,-3.7885,23.105
13.537000,-11.5830,7.8359,9.1303,16.701
13.542000,9.9117,15.3979,-27.2993,32.872
13.548000,18.6393,-2.4762,-12.0612,22.339
13.552000,-0.5486,1.4640,-14.2844,14.370
13.557000,-36.3458,10.6798,11.1294,39.483
13.563000,-36.4034,-2.3566,11.5939,38.278
13.569000,-36.5576,-16.4468,-2.0943,40.142
13.576000,-36.8037,-12.2794,4.3442,39.041
13.579000,4.4408,0.1484,-3.1574,5.451
13.582000,40.8449,14.2872,-30.8985,53.171
13.587000,40.4528,21.6889,-35.9765,58.319
13.591000,33.9710,16.6294,-29.6219,48.042
13.596000,16.6628,9.7482,-13.1619,23.365
13.601000,8.3560,6.8535,0.1081,10.808
13.606000,10.2248,5.9966,3.6682,12.408
13.620000,13.1217,3.9742,7.0274,15.406
13.627000,19.3915,3.0503,15.4253,24.965
13.631000,26.1172,4.0010,25.8661,36.975
13.633000,31.2150,7.1744,26.1608,41.355
13.661000,27.0523,9.4652,8.4257,29.873
13.662000,10.4388,6.1430,-10.8356,16.252
13.664000,-3.2600,1.5228,-27.6198,27.853
13.667000,-6.5495,-1.7667,-27.3072,28.137
13.668000,-2.3621,-0.9336,-9.9687,10.287
13.669000,4.4104,1.1810,7.9608,9.177
13.670000,7.4241,2.8258,14.0565,16.146
13.671000,6.2296,2.3991,5.7698,8.823
13.671000,3.4477,1.4887,-4.4836,5.849
13.674000,-0.1909,1.2389,-8.6914,8.781
13.680000,-1.4257,0.7320,-6.0271,6.237
13.684000,0.7595,1.3542,-0.7599,1.729
13.689000,2.1671,1.6981,2.5689,3.766
13.696000,1.1579,0.9704,2.3760,2.816
13.699000,-0.0728,0.3556,0.4895,0.609
13.704000,-0.4051,0.3891,-0.8030,0.980
13.708000,0.0156,0.6282,-1.4686,1.597
13.715000,0.3452,0.8671,-1.1528,1.483
13.718000,-0.0585,0.8165,-0.5372,0.979
13.723000,-0.8630,0.7898,0.0661,1.172
13.740000,-1.5984,0.6319,0.2328,1.734
13.743000,-1.8217,0.7326,-0.2159,1.975
13.744000,-1.4884,0.7786,-0.9023,1.907
13.755000,-1.3535,1.1404,-1.0670,2.067
13.756000,-1.3976,1.1315,-0.8445,1.987
13.758000,-0.1277,2.8985,-1.1366,3.116
13.759000,-1.0741,1.0209,-1.4543,2.076
13.791000,-1.2953,0.6203,-0.4445,1.503
13.793000,-1.4256,0.7435,-0.3958,1.656
13.794000,-1.4848,0.7689,0.4813,1.740
13.795000,-1.5111,0.3904,0.8625,1.783
13.796000,-1.4979,-0.3578,1.1534,1.924
13.796000,-1.0822,-0.1919,1.2589,1.671
13.797000,-0.8613,-0.4682,1.3150,1.640
13.798000,-0.6887,-0.5242,1.5272,1.755
13.801000,-0.9197,-0.6876,1.6588,2.017
13.805000,-0.6560,-0.7407,2.5800,2.763
13.810000,-0.6814,-1.1044,2.5517,2.863
13.816000,-0.3505,-0.4829,2.6272,2.694
13.821000,-0.6685,-0.7561,1.9171,2.166
13.828000,-0.8041,-1.4088,1.6209,2.293
13.831000,-0.5840,-1.4582,0.3577,1.611
13.836000,-0.2527,-1.5408,-0.4347,1.621
13.840000,0.3785,-1.3339,-0.8935,1.650
13.850000,0.9801,-1.6577,-0.6234,2.024
13.852000,1.8599,-1.8758,-0.2422,2.653
13.854000,2.9636,-0.9225,-1.4886,3.442
13.870000,3.4548,-0.5444,-2.2908,4.181
13.872000,3.3191,-0.5572,-3.0028,4.510
13.874000,2.5146,-0.4564,-3.5619,4.384
13.920000,0.3982,-0.4928,-3.2839,3.344
13.922000,-1.3494,-0.5176,-1.9018,2.389
13.923000,-1.9593,-0.4682,-0.2255,2.027
13.924000,-2.0740,-0.4974,1.3635,2.531
13.925000,-1.7778,-0.5760,2.3596,3.010
13.926000,-1.7495,-0.3912,2.9735,3.472
13.927000,-1.7448,-0.4210,3.3573,3.807
13.927000,-2.0051,-0.1299,3.1422,3.730
13.930000,-2.1382,0.0708,2.2666,3.117
13.931000,-1.4299,0.4941,1.0721,1.854
13.931000,-0.4201,1.0369,0.0115,1.119
13.932000,0.7824,1.5648,-0.4779,1.814
13.933000,0.2218,1.9197,-0.6989,2.055
13.938000,-1.6826,1.4687,-0.3242,2.257
13.947000,-3.6131,1.4061,-0.1928,3.882
13.948000,-5.0573,1.8253,-0.1795,5.380
13.952000,-6.2340,1.9952,-0.2076,6.549
13.959000,-6.9406,2.6646,-0.8395,7.482
13.963000,-5.1828,2.9825,-0.4894,6.000
13.967000,-2.3219,2.5877,-0.8703,3.584
13.971000,-1.3545,2.5098,-1.2708,3.122
13.980000,-0.2375,3.1524,-1.7313,3.604
13.983000,0.0456,3.3027,-2.9819,4.450
14.024000,-0.4345,3.1139,-3.5873,4.770
14.025000,-1.3220,3.2439,-4.1566,5.436
14.026000,-2.0824,3.6734,-4.3730,6.079
14.027000,-2.9250,4.3786,-3.9980,6.612
14.028000,-4.3741,4.9103,-3.6286,7.511
14.029000,-6.4793,5.5016,-3.0963,9.046
14.030000,-7.8088,6.1394,-2.9235,10.355
14.031000,-8.6114,6.7958,-2.9979,11.372
14.032000,-9.1244,7.0410,-3.1069,11.937
14.034000,-9.5634,7.5741,-3.0692,12.580
14.037000,-10.1646,8.0773,-3.0295,13.332
14.042000,-11.4446,7.7357,-2.1989,13.988
14.045000,-12.4261,7.9960,-1.1235,14.819
14.051000,-13.1596,8.8970,-1.8774,15.996
14.056000,-14.1873,9.1936,-3.9308,17.357
14.060000,-15.2151,10.0654,-5.7263,19.121
14.065000,-16.1162,11.1760,-6.2287,20.577
14.069000,-16.5888,12.3755,-5.7604,21.483
14.074000,-17.0445,13.1887,-4.1791,21.953
14.080000,-17.0102,14.6036,-1.2048,22.451
14.084000,-16.6599,15.6223,4.1982,23.221
14.096000,-16.3598,16.2940,12.4853,26.249
14.099000,-18.0368,15.9808,13.0158,27.388
14.101000,-22.6917,15.0027,4.5302,27.577
14.143000,-23.7072,11.8709,-1.2416,26.542
14.145000,-21.2388,7.2962,-2.8592,22.638
14.147000,-17.9504,3.5985,-1.1275,18.342
14.150000,-12.7172,4.4503,2.6279,13.727
14.152000,-5.7070,10.0047,4.9206,12.525
14.153000,-1.6628,14.2680,4.4691,15.044
14.154000,2.1083,13.8563,4.9042,14.849
14.155000,1.7602,12.5795,7.2430,14.622
14.155000,-0.2149,12.0976,8.5743,14.830
14.156000,-1.0523,14.1864,7.4787,16.071
14.157000,-1.6760,16.7959,2.9580,17.137
14.157000,-2.2001,15.7572,-1.4793,15.979
14.161000,0.2704,12.4323,0.4433,12.443
14.168000,2.1489,6.7845,-8.3550,10.975
14.171000,-0.7158,3.0473,-13.4596,13.819
14.178000,-8.8532,4.5656,-6.0314,11.645
14.183000,-9.7168,7.6913,14.6635,19.199
14.188000,-5.0481,12.5319,26.6968,29.921
14.196000,1.2965,9.6752,15.1632,18.034
14.198000,0.0903,4.1415,4.6242,6.208
14.202000,-2.4599,6.9094,4.8652,8.801
14.207000,-4.0924,11.0197,7.3167,13.846
14.211000,-7.2068,11.8548,10.1427,17.186
14.216000,-11.1703,8.0860,10.8769,17.563
14.223000,-15.1940,2.2176,9.1059,17.852
14.226000,-16.3269,-0.9190,7.3502,17.929
14.231000,-14.6967,-1.5433,5.6472,15.820
14.242000,-12.7885,-2.0631,3.9339,13.538
14.245000,-11.2448,-2.3599,2.4168,11.741
14.247000,-10.4115,-1.9988,0.4374,10.611
14.251000,-10.5553,-1.7387,-0.9647,10.741
14.290000,-11.1270,-1.3567,-1.6477,11.330
14.292000,-11.3768,-1.1733,-2.0606,11.621
14.293000,-11.3873,-1.3204,-2.0941,11.653
14.294000,-10.9323,-1.4739,-1.7555,11.170
14.296000,-10.3423,-1.8693,-0.9474,10.552
14.297000,-9.5908,-1.9946,0.0067,9.796
14.298000,-9.1297,-2.0575,0.8674,9.399
14.298000,-8.8270,-1.9905,1.7501,9.216
14.299000,-8.2118,-1.8433,2.1000,8.674
14.300000,-7.5973,-1.5755,2.2657,8.083
14.304000,-7.1050,-1.3088,2.4414,7.626
14.309000,-6.7938,-1.1878,2.6563,7.391
14.314000,-6.6204,-1.1540,2.9177,7.326
14.319000,-6.1950,-0.8159,3.0598,6.957
14.323000,-5.5637,-0.1520,3.0289,6.337
14.329000,-4.9342,0.6220,2.8378,5.726
14.333000,-4.4833,1.3747,2.6443,5.384
14.343000,-4.6940,1.8840,2.3715,5.586
14.345000,-4.8359,2.7605,2.1717,5.977
14.350000,-4.7430,3.8415,1.3334,6.248
14.386000,-4.0341,5.1197,1.3533,6.657
14.388000,-2.9538,6.4847,1.3880,7.260
14.389000,-1.8441,7.7021,1.4559,8.052
14.390000,-0.8313,8.8290,1.7880,9.047
14.391000,0.5673,9.8825,1.8100,10.063
14.392000,1.9696,10.4064,1.7087,10.728
14.393000,2.9003,11.0319,1.7267,11.537
14.397000,4.2296,11.6898,1.7561,12.555
14.398000,5.6141,11.7685,-0.4293,13.046
14.399000,7.7844,13.1159,-1.3744,15.314
14.403000,9.3745,13.9570,-1.9629,16.927
14.407000,10.8774,13.7666,-2.4371,17.714
14.414000,12.6200,13.2777,-1.2574,18.361
14.415000,14.0213,12.5168,1.0695,18.826
14.421000,14.9464,11.7877,3.2248,19.307
14.427000,15.7033,11.4052,3.9934,19.815
14.430000,16.5983,11.3279,3.4719,20.393
14.436000,17.1023,11.1994,3.5383,20.747
14.441000,16.8202,10.4078,4.8595,20.368
14.445000,16.9697,9.8677,4.2592,20.087
14.451000,17.0835,9.1476,3.4118,19.676
14.456000,16.4466,8.1054,2.8882,18.562
14.460000,15.7757,6.9189,1.8683,17.327
14.476000,15.7308,5.8466,0.3118,16.785
14.477000,16.0443,4.6278,-0.7096,16.713
14.479000,18.1888,3.3507,-2.1183,18.616
14.482000,21.4074,1.6021,-3.7410,21.791
14.528000,25.5130,-0.3972,-5.7591,26.158
14.530000,31.6919,-1.8814,-6.8411,32.476
14.532000,37.3639,-3.1451,-7.9232,38.324
14.534000,41.5323,-4.1704,-7.5931,42.426
14.537000,43.0885,-5.1845,-5.9012,43.799
14.539000,42.1918,-6.4702,-0.9405,42.695
14.540000,38.9989,-7.3358,4.9073,39.985
14.541000,34.3740,-7.0031,6.7864,35.731
14.542000,30.2532,-5.6384,4.9670,31.172
14.544000,27.6176,-3.6399,0.5815,27.863
14.545000,26.0781,-1.6128,-3.4953,26.361
14.546000,26.0840,0.5797,-6.1410,26.803
14.547000,26.6357,2.1807,-7.7523,27.826
14.548000,27.6746,3.4426,-8.2428,29.081
14.553000,28.4117,4.5688,-7.7369,29.799
14.557000,23.0961,8.7393,-5.8401,25.375
14.563000,-6.3741,11.3573,16.5831,21.086
14.567000,-2.1939,9.5433,-31.0149,32.524
14.572000,17.9770,10.7225,-4.0874,21.327
14.577000,10.5890,-3.2256,-14.3931,18.157
14.595000,-11.2475,11.9733,-6.0248,17.498
14.597000,-36.6615,5.8334,11.7786,38.946
14.598000,-36.7191,-6.7068,2.1655,37.389
14.599000,-36.8633,-15.2604,-5.4303,40.265
14.655000,-30.4969,-8.5192,-0.9227,31.678
14.658000,6.4800,2.5391,-5.6758,8.981
14.659000,35.2828,11.1772,-21.8165,42.962
14.661000,36.3361,16.7920,-26.4502,47.978
14.664000,23.7994,12.2930,-24.0598,36.006
14.666000,11.0234,6.6276,-16.1291,20.630
14.667000,4.8696,4.9099,-6.5060,9.495
14.668000,7.3831,3.9954,0.4777,8.408
14.670000,11.9510,4.3986,5.4374,13.847
14.671000,19.3098,0.9768,10.8709,22.181
14.673000,24.7864,2.9322,25.6523,35.791
14.674000,30.3512,6.4406,35.4129,47.082
14.676000,30.1301,9.8795,12.6025,34.121
14.676000,19.4018,9.0811,-7.6289,22.740
14.677000,1.9366,3.3036,-23.3143,23.627
14.677000,-7.5590,-1.3076,-24.6045,25.773
14.680000,-6.1554,-1.5311,-12.7402,14.232
14.684000,0.4134,0.4514,4.6471,4.687
14.689000,4.5106,2.2470,13.0376,13.978
14.694000,6.6550,2.8985,5.0800,8.860
14.702000,7.3663,2.9046,-5.5611,9.676
14.705000,3.2554,2.4917,-9.2606,10.127
14.709000,-2.3039,1.3458,-7.8999,8.338
14.716000,-4.2940,0.3432,-1.9761,4.739
14.719000,-0.0495,0.8935,2.2706,2.441
14.724000,2.1993,1.3664,3.1054,4.043
14.729000,0.5584,0.6024,1.4581,1.674
14.753000,-1.2608,0.1403,-0.4826,1.357
14.755000,-1.3486,0.3147,-1.5183,2.055
14.756000,-0.6994,0.6564,-1.0300,1.407
14.756000,-0.5175,0.8687,-0.4046,1.089
14.757000,-1.0105,0.9016,-0.0495,1.355
14.758000,-1.4947,0.8892,-0.5969,1.839
14.763000,-1.8896,0.9822,-0.8109,2.279
14.768000,-2.1531,0.9010,-1.0510,2.560
14.777000,-2.0919,0.9494,-1.1910,2.588
14.779000,-1.3526,1.2944,-1.0448,2.144
14.782000,0.0693,2.3680,-1.6318,2.877
14.787000,-0.2720,0.5270,-1.3293,1.456
14.792000,-0.4373,1.0612,-0.7665,1.380
14.801000,-0.4406,1.3199,0.3603,1.437
14.803000,-0.8510,0.4500,0.9428,1.347
14.807000,-1.2889,0.2551,1.6569,2.115
14.811000,-1.8317,-0.0041,1.8294,2.589
14.818000,-2.1485,-0.5663,2.3696,3.248
14.821000,-2.1616,-0.9362,2.3124,3.301
14.826000,-2.0627,-0.8991,2.1582,3.118
14.835000,-1.7439,-0.8784,2.3397,3.047
14.836000,-1.2384,-0.5563,2.0580,2.465
14.842000,-1.1639,-0.8416,1.8001,2.303
14.851000,-0.8246,-0.9184,1.8216,2.200
14.853000,-0.6955,-1.0930,2.0933,2.462
14.855000,-0.5018,-1.0738,1.9728,2.301
14.861000,-0.5449,-1.2026,1.5447,2.032
14.884000,-0.6239,-1.5270,1.5918,2.292
14.886000,-0.6750,-1.6117,1.1048,2.067
14.887000,-0.0799,-1.9779,0.8150,2.141
14.887000,1.0751,-1.6860,-0.3443,2.029
14.888000,2.3800,-1.0694,-1.6766,3.101
14.889000,3.1417,-1.2953,-1.8933,3.890
14.896000,3.6774,-1.1440,-1.5459,4.150
14.899000,3.2474,-0.8360,-1.5305,3.686
14.904000,0.8842,-0.6248,-1.0747,1.526
14.909000,-1.3868,-0.7272,-0.2736,1.590
14.913000,-2.7229,-0.7908,0.4292,2.868
14.919000,-3.0387,-0.8321,0.9010,3.277
14.924000,-2.7039,-0.9298,1.3325,3.155
14.929000,-2.1726,-0.6657,1.6365,2.800
14.933000,-1.7359,-0.3557,1.9266,2.618
14.937000,-0.7357,-0.0478,1.4946,1.667
14.948000,0.0974,0.1694,0.3009,0.359
14.949000,0.5854,0.5778,-1.7812,1.962
14.953000,0.2187,0.5410,-3.3135,3.364
14.958000,0.9555,1.3785,-3.0970,3.522
14.962000,1.7206,1.7076,-2.4315,3.433
14.967000,1.5974,1.8347,-1.1432,2.688
14.971000,0.8309,1.8414,0.1936,2.029
14.983000,-0.1898,1.7568,0.7502,1.920
14.984000,-1.2654,1.6796,0.8253,2.259
14.987000,-2.9007,1.9951,1.0281,3.668
14.991000,-5.6140,2.3163,0.7926,6.125
15.001000,-8.3966,2.2430,0.6136,8.713
15.002000,-8.6968,2.2303,-1.4258,9.091
15.006000,-7.6495,1.9845,-1.0090,7.967
15.011000,-4.7100,2.9229,0.2214,5.548
15.016000,-0.7953,2.9282,-0.3591,3.055
15.020000,-0.6315,2.0331,-0.4211,2.170
15.025000,-0.1925,3.7000,-1.8804,4.155
15.030000,-0.4425,4.8021,-3.5670,5.998
15.035000,-1.8979,5.3204,-5.0124,7.552
15.040000,-4.2181,5.8274,-6.2840,9.552
15.046000,-6.1577,6.2139,-5.8399,10.518
15.051000,-7.6093,7.1389,-4.5689,11.390
15.055000,-8.4166,7.9548,-3.6738,12.150
15.060000,-9.6865,7.5321,-3.2760,12.700
15.065000,-10.4495,7.8904,-2.8813,13.407
15.070000,-11.0960,8.8646,-3.3042,14.582
15.074000,-12.1520,8.8846,-3.4026,15.433
15.082000,-13.1346,9.2046,-3.6416,16.447
15.085000,-14.0514,9.6750,-3.7603,17.470
15.099000,-15.1106,10.4354,-4.4868,18.904
15.104000,-16.2562,10.7884,-6.0749,20.434
15.111000,-17.6361,11.5672,-7.2741,22.310
15.118000,-18.2375,12.4267,-6.9689,23.143
15.130000,-18.0533,13.7527,-5.2405,23.292
15.133000,-16.8447,13.8518,-1.1995,21.842
15.135000,-15.9164,14.7937,7.0090,22.832
15.138000,-15.8143,15.9752,13.5613,26.253
15.140000,-19.3467,15.6814,8.9271,26.456
15.142000,-23.6221,13.6706,1.4246,27.330
15.143000,-23.2910,9.6628,-0.3637,25.219
15.144000,-19.9478,6.3140,2.7313,21.101
15.152000,-18.0768,3.0403,3.1798,18.604
15.155000,-13.8789,2.8978,3.4374,14.589
15.160000,-6.9685,7.1479,4.0718,10.781
15.166000,-0.8557,12.5502,3.7140,13.116
15.170000,6.1482,11.7708,6.1167,14.621
15.173000,6.5590,11.8414,10.0793,16.877
15.178000,4.5434,13.0118,11.1433,17.724
15.182000,3.0331,15.2418,6.1898,16.728
15.186000,1.3172,16.0399,3.1654,16.402
15.192000,1.1316,14.9929,0.8428,15.059
15.197000,3.6961,12.2453,-1.7812,12.914
15.201000,0.0167,6.5615,-12.3984,14.028
15.213000,-7.6507,5.3787,-11.2268,14.612
15.215000,-14.1757,5.3810,1.2671,15.215
15.218000,-11.4491,7.7932,21.7342,25.772
15.222000,-3.3706,11.3524,24.9771,27.642
15.257000,1.6684,6.8066,10.1819,12.361
15.259000,-1.5804,4.3931,4.7429,6.655
