time,ax,ay,az,aT
0.008000,-0.3541,-0.2294,-0.8802,0.976
0.008000,-0.4321,-0.2351,-0.6373,0.805
0.008000,-0.5221,-0.2361,-0.4617,0.736
0.012000,-0.5739,-0.2971,-0.3486,0.734
0.017000,-0.5542,-0.3371,-0.2736,0.704
0.022000,-0.5110,-0.3495,-0.2582,0.671
0.032000,-0.4401,-0.3606,-0.3215,0.653
0.032000,-0.3801,-0.3245,-0.4112,0.647
0.037000,-0.3215,-0.2769,-0.4222,0.599
0.042000,-0.3025,-0.2463,-0.3596,0.531
0.049000,-0.2912,-0.1893,-0.2687,0.439
0.055000,-0.2517,-0.1635,-0.2498,0.391
0.057000,-0.2103,-0.1545,-0.2764,0.380
0.064000,-0.1215,-0.1383,-0.3819,0.424
0.066000,-0.0572,-0.1265,-0.4039,0.427
0.072000,0.0163,-0.1045,-0.3809,0.395
0.076000,0.1016,-0.0603,-0.3488,0.368
0.086000,0.1893,-0.0273,-0.2978,0.354
0.086000,0.1937,-0.0175,-0.2016,0.280
0.090000,0.1294,-0.0428,-0.0818,0.159
0.096000,0.1018,-0.0389,-0.0267,0.112
0.101000,0.0799,-0.0299,-0.0145,0.087
0.106000,0.0775,-0.0706,-0.0453,0.114
0.112000,0.0390,-0.1063,-0.0356,0.119
0.116000,0.0556,-0.1200,0.0050,0.132
0.121000,0.0029,-0.1071,0.0215,0.109
0.127000,-0.0376,-0.1081,-0.0505,0.125
0.130000,-0.0930,-0.1135,-0.0464,0.154
0.136000,-0.1446,-0.1332,0.0315,0.199
0.139000,-0.1208,-0.1627,0.1566,0.256
0.145000,-0.0643,-0.1756,0.3292,0.379
0.150000,-0.0179,-0.1842,0.4633,0.499
0.154000,0.0378,-0.1791,0.4803,0.514
0.168000,0.2007,-0.1171,0.3757,0.442
0.169000,0.3778,-0.1035,0.3575,0.530
0.169000,0.4310,-0.1116,0.3826,0.587
0.176000,0.4136,-0.1150,0.3652,0.564
0.179000,0.3570,-0.1137,0.3555,0.516
0.184000,0.2851,-0.1247,0.3511,0.469
0.189000,0.2858,-0.1360,0.2565,0.407
0.195000,0.2894,-0.1333,0.1361,0.346
0.198000,0.2458,-0.1354,0.0329,0.283
0.203000,0.2381,-0.1469,-0.1706,0.328
0.209000,0.2708,-0.1459,-0.3859,0.493
0.213000,0.2813,-0.0844,-0.4413,0.530
0.218000,0.2838,-0.0697,-0.4425,0.530
0.222000,0.1662,-0.0276,-0.3200,0.362
0.228000,-0.0259,0.0224,-0.1411,0.145
0.233000,0.0367,-0.0686,0.1662,0.183
0.237000,-0.0728,-0.1452,0.3798,0.413
0.243000,-0.1314,-0.1168,0.4022,0.439
0.247000,-0.1727,-0.0291,0.3509,0.392
0.252000,-0.1539,0.0556,0.2785,0.323
0.258000,-0.0877,0.0921,0.1154,0.172
0.262000,-0.0031,0.0904,-0.0332,0.096
0.267000,-0.0202,0.0388,-0.1606,0.166
0.272000,-0.1099,-0.0146,-0.1928,0.222
0.277000,-0.1619,-0.0410,-0.2229,0.278
0.282000,-0.1355,-0.0265,-0.2317,0.270
0.286000,-0.0977,0.0241,-0.1978,0.222
0.301000,-0.0458,0.0175,-0.1569,0.164
0.302000,-0.0440,0.0256,0.0129,0.053
0.302000,-0.0915,0.0645,0.2211,0.248
0.307000,-0.1116,0.0495,0.3126,0.336
0.326000,-0.1019,0.0580,0.3664,0.385
0.327000,-0.0576,0.0871,0.2941,0.312
0.327000,0.0372,0.0677,0.1603,0.178
0.328000,0.0773,0.0481,0.0150,0.092
0.335000,0.0882,0.0429,-0.0704,0.121
0.335000,0.0703,0.0068,-0.0866,0.112
0.342000,0.0258,0.0092,-0.1172,0.120
0.344000,-0.0717,0.0238,-0.0572,0.095
0.350000,-0.1503,0.0147,0.0741,0.168
0.354000,-0.1453,0.0917,0.1239,0.212
0.359000,-0.1903,0.1067,0.1856,0.286
0.364000,-0.3212,0.0045,0.2735,0.422
0.369000,-0.2684,-0.0737,0.1820,0.333
0.375000,-0.1542,-0.1134,0.0020,0.191
0.379000,-0.0201,-0.1286,-0.1161,0.174
0.384000,0.0931,-0.1072,-0.2587,0.295
0.397000,0.1471,-0.0728,-0.3661,0.401
0.397000,0.1160,-0.0082,-0.3619,0.380
0.398000,0.0477,0.0098,-0.2918,0.296
0.405000,-0.0259,0.0218,-0.2653,0.267
0.411000,-0.0546,0.0650,-0.2103,0.227
0.413000,-0.0358,0.1059,-0.1843,0.216
0.419000,0.0142,0.1282,-0.0795,0.152
0.423000,-0.0408,0.0550,0.0730,0.100
0.428000,-0.0830,0.0248,0.2734,0.287
0.434000,-0.1001,-0.0037,0.4358,0.447
0.438000,-0.0655,0.0148,0.5175,0.522
0.443000,-0.0533,0.0107,0.5952,0.598
0.447000,0.0131,0.0152,0.6689,0.669
0.452000,0.0525,-0.0414,0.7338,0.737
0.458000,-0.0260,-0.0924,0.7590,0.765
0.462000,-0.1362,-0.1263,0.8021,0.823
0.467000,-0.1681,-0.1472,0.7505,0.783
0.472000,-0.1938,-0.1508,0.6020,0.650
0.477000,-0.1851,-0.2107,0.3638,0.459
0.482000,-0.0734,-0.2073,0.0690,0.230
0.507000,0.0740,-0.1491,-0.2705,0.318
0.508000,0.2449,-0.1169,-0.5667,0.628
0.509000,0.3527,-0.0715,-0.7747,0.854
0.510000,0.4736,0.0162,-0.8996,1.017
0.510000,0.4616,-0.0256,-0.8414,0.960
0.511000,0.3310,-0.1921,-0.6864,0.786
0.519000,0.1444,-0.3165,-0.4702,0.585
0.521000,0.0122,-0.3394,-0.2597,0.428
0.527000,0.0038,-0.1873,-0.0953,0.210
0.530000,-0.0025,-0.0256,0.0807,0.085
0.535000,0.0152,0.0929,0.2087,0.229
0.546000,0.1316,0.1680,0.2698,0.344
0.546000,0.1676,0.1688,0.3025,0.385
0.549000,0.1309,0.0929,0.3213,0.359
0.562000,0.0551,0.0335,0.2928,0.300
0.564000,0.1125,0.0479,0.3126,0.336
0.564000,0.0400,0.0809,0.4978,0.506
0.581000,-0.1076,0.0937,0.6476,0.663
0.582000,-0.1630,0.0953,0.6450,0.672
0.582000,-0.1486,0.0642,0.5022,0.528
0.584000,-0.1246,0.0485,0.2956,0.324
0.597000,-0.0695,0.0607,0.1517,0.177
0.597000,0.0241,0.0176,-0.0612,0.068
0.598000,0.2013,0.0079,-0.2114,0.292
0.614000,0.3733,0.0438,-0.2756,0.466
0.615000,0.4806,0.0873,-0.2131,0.533
0.615000,0.5476,0.1025,-0.1579,0.579
0.618000,0.5294,0.1062,-0.0670,0.544
0.631000,0.5005,0.1197,0.0074,0.515
0.632000,0.4278,0.0972,0.1060,0.451
0.633000,0.3208,0.0314,0.1427,0.353
0.647000,0.2940,-0.0227,0.0580,0.300
0.647000,0.1771,-0.0554,-0.0240,0.187
0.647000,0.1038,-0.0811,-0.1296,0.185
0.669000,0.0280,-0.0779,-0.2733,0.286
0.670000,-0.0244,-0.1125,-0.3765,0.394
0.670000,-0.0660,-0.1489,-0.3200,0.359
0.671000,-0.0821,-0.1774,-0.2759,0.338
0.672000,-0.0204,-0.1602,-0.2011,0.258
0.677000,-0.0286,-0.1570,-0.1435,0.215
0.682000,-0.0085,-0.1369,0.0286,0.140
0.686000,-0.0481,-0.1193,0.1550,0.201
0.691000,-0.0202,-0.0994,0.2432,0.264
0.696000,0.0749,-0.0993,0.2719,0.299
0.702000,0.1586,-0.1117,0.3534,0.403
0.706000,0.2095,-0.1363,0.3754,0.451
0.711000,0.1920,-0.1471,0.3811,0.451
0.719000,0.1543,-0.1297,0.4183,0.464
0.722000,0.1396,-0.1032,0.3867,0.424
0.726000,0.0758,-0.1940,0.2743,0.344
0.730000,0.1637,-0.0886,0.0690,0.198
0.736000,0.2086,0.0193,0.0792,0.224
0.741000,0.2748,0.0745,0.1609,0.327
0.745000,0.3099,0.0913,0.2713,0.422
0.751000,0.2499,0.0531,0.3076,0.400
0.756000,0.1408,-0.0138,0.3107,0.341
0.761000,0.1045,-0.0354,0.3858,0.401
0.765000,0.1359,-0.0335,0.3871,0.412
0.792000,0.2200,0.0203,0.4293,0.483
0.795000,0.2626,0.0472,0.6340,0.688
0.795000,0.1947,0.0825,0.7286,0.759
0.796000,0.1937,0.1818,0.4362,0.511
0.796000,0.1159,0.1969,-0.0397,0.232
0.796000,-0.0778,0.1619,-0.3958,0.435
0.799000,-0.1584,0.1154,-0.5967,0.628
0.805000,-0.1761,0.0888,-0.6332,0.663
0.809000,-0.1594,0.0632,-0.5844,0.609
0.813000,-0.0937,0.0456,-0.5601,0.570
0.818000,-0.0176,0.0622,-0.4792,0.484
0.827000,0.0096,0.0436,-0.3678,0.371
0.828000,0.0192,0.0276,-0.2211,0.224
0.834000,0.0427,0.0164,-0.0389,0.060
0.841000,0.0399,0.0312,0.0405,0.065
0.842000,0.0254,0.0335,0.1008,0.109
0.847000,0.0471,0.0639,0.1279,0.151
0.857000,0.0813,0.0604,0.0645,0.120
0.861000,0.1254,0.0471,-0.0750,0.154
0.862000,0.1100,0.0266,-0.1092,0.157
0.876000,0.1090,-0.0009,-0.1266,0.167
0.877000,0.0579,0.0104,-0.0940,0.111
0.878000,-0.0195,0.0292,-0.0735,0.081
0.895000,-0.0160,0.0699,-0.0748,0.104
0.897000,-0.0276,0.0345,-0.0382,0.058
0.898000,-0.0426,0.0115,0.0337,0.056
0.899000,-0.0231,-0.0470,0.0572,0.078
0.905000,-0.0098,-0.0620,0.0181,0.065
0.907000,0.0139,-0.0096,-0.0408,0.044
0.913000,0.0435,0.0673,-0.0213,0.083
0.917000,0.0411,0.0585,0.0766,0.105
0.921000,0.0571,-0.0072,0.1693,0.179
0.925000,0.1250,-0.0874,0.1709,0.229
0.930000,0.1781,-0.1006,0.1509,0.254
0.937000,0.2428,-0.0900,0.1668,0.308
0.940000,0.2456,-0.0316,0.2185,0.330
0.945000,0.2226,-0.0259,0.2991,0.374
0.952000,0.1266,-0.0514,0.3655,0.390
0.955000,-0.0112,-0.0796,0.3845,0.393
0.960000,-0.0666,-0.1325,0.3849,0.412
0.966000,-0.0876,-0.0858,0.3691,0.389
0.972000,-0.0911,-0.0566,0.3585,0.374
0.975000,-0.0650,-0.0472,0.3676,0.376
0.980000,-0.0359,-0.0552,0.3005,0.308
0.985000,-0.0351,-0.0852,0.2530,0.269
0.990000,-0.0270,-0.0678,0.1173,0.138
0.996000,-0.0384,-0.0578,-0.0397,0.080
1.000000,-0.0862,-0.0166,-0.2088,0.226
1.005000,-0.0871,-0.0179,-0.3517,0.363
1.010000,-0.0916,-0.0087,-0.4377,0.447
1.015000,-0.1476,0.0110,-0.4001,0.427
1.021000,-0.1163,0.0292,-0.3202,0.342
1.025000,-0.1337,0.0863,-0.2002,0.256
1.030000,-0.0559,0.0840,-0.0520,0.113
1.039000,0.0075,0.0745,0.1319,0.152
1.039000,0.0090,0.0360,0.2154,0.219
1.043000,-0.0390,0.0066,0.3016,0.304
1.051000,-0.0954,0.0101,0.3212,0.335
1.053000,-0.1172,0.0366,0.3223,0.345
1.058000,-0.1165,0.0216,0.2475,0.274
1.063000,-0.1555,-0.0325,0.0944,0.185
1.066000,-0.1819,-0.0629,-0.0629,0.203
1.072000,-0.2130,-0.0766,-0.2033,0.304
1.077000,-0.1774,-0.0565,-0.3102,0.362
1.083000,-0.1332,-0.0887,-0.3743,0.407
1.088000,-0.0974,-0.1299,-0.3911,0.423
1.092000,-0.0722,-0.1419,-0.3676,0.401
1.098000,-0.1050,-0.1319,-0.2298,0.285
1.102000,0.0484,-0.0165,-0.1042,0.116
1.107000,0.1254,0.0105,0.0068,0.126
1.111000,0.1480,-0.0463,0.1370,0.207
1.118000,0.1667,-0.0985,0.2985,0.356
1.122000,0.2152,-0.0842,0.2619,0.349
1.127000,0.2691,-0.0561,0.1875,0.333
1.132000,0.2421,-0.0666,0.1421,0.289
1.136000,0.2443,-0.0821,0.1185,0.284
1.141000,0.2423,-0.1358,0.1237,0.304
1.145000,0.1904,-0.1846,-0.0025,0.265
1.151000,0.2174,-0.1160,-0.0975,0.265
1.155000,0.2083,-0.1213,-0.1806,0.301
1.160000,0.2323,-0.0831,-0.2041,0.320
1.175000,0.1843,-0.0731,-0.1847,0.271
1.176000,0.0647,-0.0913,-0.1847,0.216
1.176000,-0.0024,-0.1138,-0.1300,0.173
1.192000,-0.0914,-0.1386,-0.1328,0.213
1.193000,-0.0683,-0.1609,-0.1334,0.220
1.195000,-0.0577,-0.1615,-0.1436,0.224
1.196000,-0.0520,-0.1619,-0.0656,0.182
1.201000,-0.0629,-0.1310,0.0792,0.166
1.204000,-0.0591,-0.1290,0.1666,0.219
1.209000,-0.0672,-0.1512,0.1704,0.238
1.222000,-0.0321,-0.0904,0.0526,0.109
1.223000,-0.0233,-0.0656,0.1070,0.128
1.223000,-0.0047,-0.0556,0.2141,0.221
1.235000,0.0574,-0.0412,0.2091,0.221
1.236000,0.0988,-0.0105,0.2140,0.236
1.238000,0.0361,-0.0138,0.3770,0.379
1.243000,0.0013,-0.0034,0.3852,0.385
1.250000,-0.0488,-0.0273,0.4012,0.405
1.253000,-0.0067,-0.0303,0.3747,0.376
1.257000,-0.0371,0.0137,0.4541,0.456
1.268000,-0.1057,0.0644,0.5797,0.593
1.268000,-0.1828,0.1693,0.7947,0.833
1.272000,-0.3131,0.1296,0.9250,0.985
1.288000,-0.4487,-0.0289,1.1859,1.268
1.289000,-0.4380,-0.0505,1.2576,1.333
1.290000,-0.2660,0.0046,1.1597,1.190
1.292000,-0.2242,0.0288,1.1674,1.189
1.318000,-0.1201,0.0628,1.3958,1.402
1.318000,0.0521,0.0490,1.4748,1.476
1.318000,0.3819,0.1401,1.8448,1.889
1.319000,0.7835,0.1275,2.2841,2.418
1.319000,1.2416,-0.0030,2.4490,2.746
1.321000,1.6158,-0.0964,2.5823,3.048
1.327000,1.8365,-0.2321,2.8997,3.440
1.331000,1.9843,-0.3671,2.9853,3.603
1.336000,2.1053,-0.4592,2.6056,3.381
1.340000,2.0517,-0.6306,2.4470,3.255
1.346000,1.9935,-0.7492,2.4403,3.239
1.352000,2.0572,-0.8194,2.1340,3.075
1.356000,2.0285,-0.9434,1.8679,2.914
1.361000,1.9204,-1.1203,1.4837,2.673
1.366000,1.6616,-1.2879,1.1052,2.375
1.370000,1.4576,-1.4174,0.7174,2.156
1.376000,1.5213,-1.3827,0.4460,2.104
1.395000,1.5956,-1.3795,0.2832,2.128
1.396000,1.6657,-1.3831,0.1781,2.172
1.397000,1.7939,-1.2640,0.0421,2.195
1.397000,1.8559,-1.0692,-0.1012,2.144
1.403000,1.6992,-0.9485,-0.2017,1.956
1.407000,1.6114,-0.8820,-0.3694,1.874
1.410000,1.6377,-0.7996,-0.6692,1.941
1.415000,1.5451,-0.7765,-1.0739,2.036
1.419000,1.3843,-0.8152,-1.5210,2.212
1.425000,1.0081,-0.9914,-2.1631,2.584
1.429000,0.5708,-1.1139,-2.7960,3.063
1.434000,0.4140,-0.9931,-3.3067,3.477
1.439000,0.5545,-0.6979,-3.7606,3.865
1.445000,0.6697,-0.5032,-3.9910,4.078
1.449000,0.6214,-0.4350,-3.8288,3.903
1.452000,0.3771,-0.4814,-3.4203,3.474
1.457000,0.0051,-0.5858,-2.9002,2.959
1.463000,-0.0225,-0.5122,-2.3411,2.397
1.467000,0.0669,-0.4432,-1.7376,1.794
1.472000,0.2182,-0.3748,-1.2565,1.329
1.478000,0.0938,-0.3721,-0.6565,0.760
1.483000,-0.2669,-0.4746,-0.0140,0.545
1.488000,-0.3717,-0.5469,0.3584,0.752
1.503000,-0.3018,-0.5462,0.5172,0.811
1.505000,-0.1862,-0.4531,0.6042,0.778
1.506000,-0.0206,-0.3868,0.8097,0.898
1.530000,0.0752,-0.4286,0.8325,0.939
1.531000,-0.0425,-0.5398,0.6981,0.883
1.532000,-0.2351,-0.8921,0.4874,1.043
1.532000,-0.3570,-1.1537,0.3944,1.270
1.533000,-0.3732,-1.2582,0.1005,1.316
1.533000,-0.3800,-1.3995,-0.1897,1.463
1.537000,-0.3012,-1.4031,-0.3338,1.473
1.543000,-0.2804,-1.3527,-0.3754,1.432
1.547000,-0.1239,-1.4631,-0.5814,1.579
1.553000,0.0388,-1.5964,-1.2402,2.022
1.555000,-0.0056,-1.6161,-1.6012,2.275
1.560000,0.0755,-1.3601,-1.8093,2.265
1.565000,0.2513,-0.9406,-1.8216,2.065
1.571000,0.4727,-0.4883,-1.6233,1.760
1.576000,0.5326,-0.1485,-1.2275,1.346
1.580000,0.4272,0.0699,-0.6971,0.821
1.586000,0.1546,0.1888,-0.2291,0.335
1.590000,-0.1512,0.2485,0.1350,0.321
1.595000,-0.4118,0.2415,0.1568,0.503
1.600000,-0.4724,0.2536,0.0606,0.540
1.604000,-0.4027,0.3204,-0.1853,0.547
1.610000,-0.4252,0.2699,-0.4243,0.659
1.615000,-0.0879,0.4227,-0.8108,0.919
1.620000,-0.2895,0.4538,-0.7731,0.942
1.624000,-0.0659,0.5378,-0.8440,1.003
1.629000,0.1196,0.6249,-1.3823,1.522
1.634000,0.2483,0.6604,-1.7481,1.885
1.639000,0.1751,0.6657,-1.7514,1.882
1.645000,0.1202,0.6168,-2.0565,2.150
1.650000,0.9567,0.8225,-3.2491,3.485
1.654000,1.6817,1.1330,-4.2843,4.740
1.678000,1.6878,1.3629,-4.4310,4.934
1.680000,1.3709,1.3595,-4.1993,4.622
1.682000,0.7696,1.0582,-3.7059,3.930
1.684000,0.1128,0.6589,-3.0909,3.162
1.685000,-0.3685,0.2992,-2.4869,2.532
1.687000,-0.6570,0.0613,-2.4296,2.518
1.690000,-0.6913,-0.0317,-2.7915,2.876
1.701000,-0.6056,0.0271,-3.1809,3.238
1.704000,-0.5426,0.1733,-3.3576,3.406
1.705000,-0.3988,0.3815,-3.2164,3.263
1.709000,-0.1738,0.5424,-1.9824,2.063
1.711000,0.0323,0.5424,-0.6599,0.855
1.718000,0.5328,0.5142,0.0511,0.742
1.722000,1.0579,0.4849,0.5398,1.283
1.727000,1.3018,0.3978,1.1568,1.786
1.732000,1.2503,0.2697,2.0641,2.428
1.736000,0.9291,0.2080,2.9060,3.058
1.743000,0.3852,0.1782,3.4080,3.434
1.746000,-0.1384,0.1652,3.1390,3.146
1.751000,-0.5756,0.2491,2.1329,2.223
1.759000,-0.8793,0.4552,1.4257,1.736
1.762000,-1.1626,0.5983,0.9515,1.617
1.766000,-1.2449,0.5507,0.6492,1.508
1.771000,-1.2416,0.2643,0.2071,1.286
1.775000,-1.4061,-0.0436,-0.0509,1.408
1.781000,-1.7532,-0.2325,-0.0233,1.769
1.784000,-1.8511,-0.4256,0.1492,1.905
1.789000,-1.6071,-0.5511,0.3140,1.728
1.794000,-1.4349,-0.7546,-0.1621,1.629
1.799000,-1.2912,-0.9333,-0.2953,1.620
1.805000,-1.0521,-1.2238,0.2438,1.632
1.809000,-0.9302,-1.5610,0.1422,1.823
1.814000,-0.6103,-1.7304,-0.3876,1.875
1.818000,-0.0337,-1.7549,-0.8884,1.967
1.824000,0.6140,-1.6863,-1.0937,2.102
1.828000,1.1688,-1.5743,-1.1652,2.281
1.833000,1.4320,-1.3358,-1.2518,2.324
1.839000,1.6053,-1.0233,-1.4879,2.416
1.844000,1.7112,-0.6316,-1.7430,2.523
1.848000,1.9032,-0.2178,-1.6923,2.556
1.853000,2.1046,0.1535,-1.2299,2.442
1.862000,2.0977,0.1986,-0.2872,2.127
1.863000,1.8051,-0.4724,0.9923,2.113
1.869000,1.7172,-1.2406,0.3196,2.142
1.882000,1.8738,-1.1463,-1.6099,2.723
1.884000,1.9795,-1.0244,-1.9500,2.961
1.884000,2.0515,-1.0273,-1.0098,2.507
1.893000,1.9632,-1.1300,0.0901,2.267
1.894000,2.3624,-0.6505,1.0326,2.659
1.897000,2.6588,-0.0019,1.8974,3.266
1.905000,2.5713,-0.1707,1.6012,3.034
1.908000,1.8847,-1.0444,1.0924,2.416
1.912000,0.8604,-2.4357,0.9783,2.762
1.916000,0.9801,-3.0774,0.6253,3.290
1.922000,1.8210,-2.7945,0.6200,3.393
1.927000,2.6253,-2.3954,0.8527,3.655
1.931000,3.2698,-2.1666,0.7432,3.992
1.937000,3.6212,-2.1296,0.7557,4.268
1.942000,3.5678,-2.2024,0.8320,4.275
1.946000,3.4010,-2.2015,0.9262,4.156
1.951000,3.1644,-2.1527,0.9545,3.944
1.961000,2.8391,-2.2088,0.9150,3.712
1.963000,0.5038,-1.2017,1.7327,2.168
1.965000,1.2252,-0.3183,1.1386,1.703
1.974000,-0.7720,-0.0447,-2.4293,2.549
1.978000,-0.1052,0.0541,-2.4879,2.491
1.981000,-0.0602,0.2813,-2.2649,2.283
1.991000,0.3153,-0.2495,-0.9817,1.061
1.993000,0.1324,-0.9127,-0.4088,1.009
1.996000,-0.4440,-1.2276,-0.3093,1.342
2.000000,-1.1234,-1.3316,-0.1490,1.749
2.014000,-1.5390,-1.4813,-0.3524,2.165
2.015000,-1.6225,-1.6148,-0.4770,2.338
2.017000,-1.6617,-1.6175,-0.4942,2.371
2.029000,-1.7454,-1.5015,-0.3808,2.334
2.030000,-1.8582,-1.3991,-0.2185,2.336
2.031000,-1.9337,-1.2673,-0.1438,2.316
2.034000,-1.9006,-1.0801,-0.0412,2.186
2.039000,-1.7903,-0.8613,-0.0077,1.987
2.044000,-1.6120,-0.6898,-0.1453,1.759
2.048000,-1.5042,-0.5915,-0.2312,1.633
2.053000,-1.5261,-0.6261,-0.1334,1.655
2.058000,-1.5917,-0.7338,-0.0330,1.753
2.063000,-1.6483,-0.8644,0.0829,1.863
2.069000,-1.6028,-0.9632,0.3752,1.907
2.073000,-1.5337,-1.0779,1.3132,2.289
2.077000,-1.5910,-1.2469,1.4956,2.515
2.082000,-1.8198,-1.4462,0.7058,2.429
2.087000,-2.1891,-1.5517,-0.2241,2.693
2.093000,-2.6609,-1.5922,-0.6128,3.161
2.097000,-2.9297,-1.6183,-0.9260,3.473
2.112000,-3.0962,-1.6130,-1.2968,3.724
2.114000,-3.1531,-1.4949,-1.4994,3.798
2.124000,-3.1216,-1.3234,-1.7115,3.798
2.125000,-3.0227,-1.1674,-1.8282,3.720
2.126000,-2.8631,-1.0004,-1.7326,3.493
2.127000,-2.7622,-0.9225,-1.4603,3.258
2.133000,-2.7028,-0.9288,-1.2472,3.118
2.140000,-2.5704,-0.8856,-1.0351,2.909
2.141000,-2.4801,-0.7048,-0.9473,2.747
2.145000,-2.2054,-0.5112,-0.9737,2.464
2.162000,-1.7919,-0.3123,-0.8820,2.021
2.162000,-1.5528,-0.0791,-0.7207,1.714
2.163000,-1.2844,0.1956,-0.3842,1.355
2.165000,-0.9699,0.5090,0.1737,1.109
2.177000,-0.6779,0.7871,0.2895,1.078
2.178000,-0.3077,1.0729,0.1649,1.128
2.180000,0.0745,1.3955,-0.1401,1.404
2.197000,0.5791,1.7477,-0.3601,1.876
2.198000,1.2209,2.1084,-0.4664,2.481
2.199000,1.7978,2.3585,-0.2914,2.980
2.200000,2.2344,2.4741,0.1443,3.337
2.211000,2.3907,2.4578,0.3309,3.445
2.212000,2.2142,2.2854,-0.1608,3.186
2.214000,1.8285,2.1095,-0.4823,2.833
2.229000,1.4473,1.9916,-0.7104,2.562
2.230000,1.3229,1.8975,-1.1324,2.575
2.231000,1.2728,1.8225,-1.4906,2.676
2.250000,1.1344,1.7570,-1.6326,2.653
2.251000,1.0747,1.5887,-1.6117,2.505
2.251000,0.9593,1.3438,-1.4764,2.215
2.251000,0.8046,1.1205,-1.4873,2.029
2.259000,0.6412,0.9066,-1.7576,2.079
2.260000,0.5456,0.7718,-1.8744,2.099
2.263000,0.5466,0.7403,-1.8053,2.026
2.273000,0.4985,0.7026,-1.5080,1.737
2.274000,0.4068,0.5631,-1.0876,1.291
2.277000,0.2406,0.2410,-0.6154,0.703
2.290000,0.0545,-0.1254,-0.6363,0.651
2.290000,-0.0416,-0.3637,-0.9352,1.004
2.292000,-0.0467,-0.4766,-1.0117,1.119
2.297000,-0.0163,-0.4761,-1.0823,1.182
2.310000,0.1494,-0.3457,-1.3848,1.435
2.312000,0.3831,-0.0925,-1.5259,1.576
2.312000,0.7923,0.1905,-1.5401,1.742
2.326000,1.1452,0.4411,-1.2796,1.773
2.326000,1.3394,0.5855,-0.8874,1.710
2.327000,1.4106,0.5609,-0.6063,1.635
2.343000,1.3161,0.4031,-0.3728,1.426
2.343000,1.1750,0.2643,-0.5245,1.314
2.344000,0.9096,0.0955,-0.5779,1.082
2.346000,0.4782,-0.0473,-0.4299,0.645
2.369000,-0.0245,-0.0913,-0.3755,0.387
2.370000,-0.4272,-0.1048,-0.5095,0.673
2.370000,-0.7312,-0.1725,-0.5017,0.903
2.370000,-0.9325,-0.3527,-0.4499,1.094
2.381000,-1.0439,-0.6196,-0.3941,1.276
2.382000,-1.1419,-0.8681,-0.4012,1.489
2.383000,-1.1642,-1.0000,-0.5860,1.643
2.385000,-1.1154,-1.0028,-0.3925,1.550
2.390000,-1.0016,-1.0332,-0.1274,1.445
2.395000,-0.8357,-1.0324,-0.2333,1.349
2.401000,-0.8552,-0.9436,-0.4266,1.343
2.410000,-0.9126,-0.7748,-0.5032,1.299
2.411000,-0.8631,-0.5319,-0.5858,1.171
2.416000,-0.7964,-0.3119,-0.5722,1.029
2.420000,-0.7639,-0.0995,-0.5463,0.944
2.425000,-0.8385,0.1661,-0.4725,0.977
2.429000,-0.7805,0.4969,-0.5205,1.062
2.435000,-0.7278,0.9557,-0.4390,1.279
2.439000,-0.8063,1.4137,-0.2425,1.645
2.445000,-0.9521,1.7650,-0.0098,2.005
2.452000,-1.2071,2.1321,-0.0269,2.450
2.454000,-1.3880,2.4428,-0.0279,2.810
2.458000,-1.5190,2.5103,0.0182,2.934
2.472000,-1.7157,2.3821,0.4725,2.973
2.473000,-1.9493,2.1607,1.2843,3.181
2.476000,-2.1390,1.9290,1.8218,3.408
2.481000,-2.3492,1.6423,1.7036,3.334
2.487000,-2.5613,1.3742,1.7546,3.395
2.488000,-2.8702,1.1856,1.7265,3.553
2.493000,-3.1310,1.0589,1.5426,3.648
2.498000,-3.4264,1.0124,1.2793,3.795
2.503000,-3.6714,0.9401,0.9188,3.900
2.508000,-3.9123,0.8059,0.4699,4.022
2.512000,-4.1689,0.7719,0.0270,4.240
2.516000,-4.2362,0.9195,-0.0406,4.335
2.521000,-4.0878,1.1459,0.0611,4.246
2.526000,-3.9118,1.3680,0.0979,4.145
2.534000,-3.8588,1.5789,0.0939,4.170
2.537000,-3.6842,1.7578,0.1272,4.084
2.541000,-3.5451,1.9174,0.2315,4.037
2.547000,-3.5219,2.1203,0.3446,4.125
2.552000,-3.5184,2.3696,0.6048,4.285
2.557000,-3.4938,2.6410,0.9489,4.481
2.562000,-3.2822,2.8780,1.1121,4.505
2.569000,-2.9813,3.0188,0.9878,4.356
2.571000,-2.8195,3.0477,1.0256,4.277
2.575000,-2.6649,2.9864,1.3165,4.213
2.582000,-2.4143,2.7851,1.4232,3.951
2.585000,-2.1581,2.4301,1.2961,3.499
2.590000,-1.9581,2.0388,1.0755,3.025
2.602000,-1.7758,1.7241,0.9445,2.649
2.604000,-1.5846,1.4332,0.7727,2.272
2.611000,-1.4085,1.1185,0.8368,1.984
2.612000,-1.3598,0.7273,1.0910,1.889
2.626000,-1.5175,0.4362,1.3009,2.046
2.627000,-1.6413,0.2754,1.4700,2.220
2.627000,-1.6264,0.0891,1.5526,2.250
2.629000,-1.7080,-0.1471,1.4630,2.254
2.634000,-1.8916,-0.4120,1.4449,2.416
2.638000,-1.9629,-0.6129,1.2306,2.396
2.643000,-1.7723,-0.6905,1.1543,2.225
2.649000,-1.4611,-0.6616,1.1466,1.972
2.654000,-1.0556,-0.7102,1.0876,1.674
2.659000,-0.7728,-0.8241,0.6713,1.314
2.664000,-0.5533,-0.8788,0.2843,1.077
2.669000,-0.2369,-0.8290,0.4730,0.983
2.673000,0.2192,-0.6870,0.9456,1.189
2.681000,0.6403,-0.6009,1.3468,1.608
2.683000,1.0103,-0.5559,1.7327,2.081
2.688000,1.3738,-0.6670,2.0834,2.583
2.692000,1.5949,-0.8836,2.1056,2.785
2.700000,1.7810,-1.0287,1.9407,2.828
2.703000,2.1616,-1.1262,1.6340,2.934
2.707000,2.5603,-1.2091,0.8955,2.970
2.717000,2.7630,-1.2865,0.6710,3.121
2.718000,2.9189,-1.3438,0.6876,3.286
2.724000,3.0339,-1.2635,0.5797,3.337
2.738000,3.0661,-1.0907,0.4814,3.290
2.739000,2.9593,-0.9518,0.3689,3.130
2.740000,2.6666,-0.8706,0.3660,2.829
2.742000,2.4442,-0.7180,0.4725,2.591
2.756000,2.3401,-0.5252,0.4704,2.444
2.758000,2.1704,-0.4261,0.2612,2.227
2.758000,2.0332,-0.4567,0.1573,2.090
2.765000,1.8589,-0.4809,0.2176,1.932
2.766000,1.7190,-0.4032,0.4251,1.816
2.771000,1.7037,-0.2170,0.7108,1.859
2.777000,1.7673,-0.0346,0.9676,2.015
2.781000,1.8662,0.0792,0.8711,2.061
2.785000,1.7611,0.1650,0.6993,1.902
2.789000,1.8247,0.3901,1.0194,2.126
2.796000,1.8319,0.5775,0.8643,2.106
2.800000,1.8471,0.7677,0.8467,2.172
2.804000,1.9943,0.8367,0.9358,2.357
2.810000,2.0611,0.8896,0.4428,2.288
2.815000,2.2750,0.9743,0.3952,2.506
2.820000,2.4690,1.0072,0.9241,2.822
2.824000,2.7682,0.9814,1.4053,3.256
2.834000,2.8315,0.8780,1.3901,3.274
2.836000,2.3036,0.6731,0.5127,2.454
2.840000,1.9609,0.4931,0.3089,2.045
2.854000,1.6614,0.1632,0.2965,1.696
2.855000,1.4523,-0.1351,0.2572,1.481
2.855000,0.8740,-0.4641,-0.0007,0.990
2.861000,0.5376,-0.6329,0.3691,0.909
2.863000,0.5589,-0.5271,0.4154,0.873
2.869000,0.7657,-0.3571,0.5673,1.018
2.873000,0.7470,-0.2805,0.4911,0.937
2.878000,0.9074,-0.1202,0.9051,1.287
2.883000,0.9223,-0.0481,1.2630,1.565
2.887000,0.8636,-0.0711,0.7264,1.131
2.894000,0.6638,-0.1296,0.2585,0.724
2.898000,0.4044,-0.1950,0.1643,0.478
2.902000,0.2882,-0.2004,0.0773,0.359
2.907000,0.3698,-0.1055,-0.1012,0.398
2.913000,0.4694,0.0058,-0.2408,0.528
2.917000,0.6825,-0.0221,-0.4029,0.793
2.922000,0.9087,-0.2034,-0.4114,1.018
2.927000,1.1218,-0.4399,-0.1203,1.211
2.932000,1.2339,-0.6811,0.1800,1.421
2.936000,1.2882,-0.7977,0.3405,1.553
2.948000,1.2706,-0.8111,0.4602,1.576
2.950000,1.2457,-0.7167,0.3933,1.490
2.953000,1.0920,-0.6224,0.3331,1.300
2.974000,1.2295,-0.5138,0.3169,1.370
2.977000,1.3382,-0.3863,0.2323,1.412
2.977000,1.4690,-0.3329,0.0745,1.508
2.977000,1.6080,-0.2866,0.2763,1.657
2.978000,1.7867,-0.2306,0.3842,1.842
2.982000,1.8961,-0.1528,0.1409,1.907
2.985000,1.7915,-0.1797,-0.1254,1.805
2.991000,1.4826,-0.2636,-0.1162,1.510
2.996000,1.3754,-0.1320,0.0559,1.383
3.000000,1.5361,0.2220,0.0083,1.552
3.006000,1.7952,0.5161,-0.2877,1.890
3.010000,1.8829,0.6474,-0.1584,1.997
3.015000,1.7129,0.6544,-0.0319,1.834
3.019000,1.5407,0.6902,-0.2402,1.705
3.024000,1.5283,0.7475,-0.3676,1.741
3.029000,1.5463,0.7690,-0.1823,1.737
3.034000,1.2723,0.7904,-0.1193,1.503
3.040000,0.9811,0.9386,-0.2478,1.380
3.045000,0.9854,1.1988,-0.2145,1.567
3.048000,0.8905,1.3392,-0.0074,1.608
3.054000,0.5503,1.2763,0.0707,1.392
3.058000,0.2203,1.0990,-0.0655,1.123
3.064000,-0.0692,0.9171,-0.3038,0.969
3.068000,0.5728,2.2675,-0.4097,2.374
3.075000,3.1805,8.1886,0.0343,8.785
3.079000,3.5958,10.9091,0.5938,11.502
3.099000,1.6882,7.6750,-0.3249,7.865
3.100000,-0.4047,2.2372,-1.3477,2.643
3.100000,-1.6821,-1.5216,-1.7686,2.876
3.100000,-1.4064,-1.7638,-2.2245,3.168
3.103000,-0.9988,-0.3767,-2.7617,2.961
3.108000,-1.0336,0.5230,-2.8632,3.089
3.112000,-0.9227,0.7804,-2.5161,2.791
3.117000,-0.7274,0.5803,-1.9851,2.192
3.122000,-0.5655,0.2558,-1.6751,1.786
3.127000,-0.5107,0.0818,-1.6663,1.745
3.131000,-0.4689,0.0560,-1.6193,1.687
3.136000,-0.3249,0.0393,-1.4820,1.518
3.144000,-0.1813,-0.0062,-1.5982,1.609
3.148000,-0.2053,0.0006,-1.2434,1.260
3.152000,-0.2463,0.0957,-0.6900,0.739
3.157000,-0.1874,0.1428,-0.5271,0.577
3.162000,-0.0646,0.1636,-0.5108,0.540
3.167000,0.2827,0.2800,-0.2173,0.453
3.172000,0.7523,0.2889,0.1218,0.815
3.178000,0.8451,0.1450,0.2534,0.894
3.182000,0.6353,0.1114,0.6034,0.883
3.186000,0.5048,0.0902,0.4361,0.673
3.194000,0.5391,0.0380,0.4163,0.682
3.196000,0.6377,-0.1287,0.6059,0.889
3.201000,0.8004,-0.2447,0.6869,1.083
3.223000,0.9487,-0.1837,0.4872,1.082
3.225000,1.1361,-0.0890,0.3726,1.199
3.226000,1.4925,0.0702,0.4096,1.549
3.227000,1.7918,0.2343,0.5912,1.901
3.228000,1.8839,0.1380,0.6183,1.988
3.233000,1.8880,0.0588,0.3814,1.927
3.240000,2.0878,-0.0225,0.0981,2.090
3.243000,2.2841,-0.1417,0.0906,2.290
3.247000,2.4435,-0.1268,-0.0400,2.447
3.249000,2.3106,-0.2765,-0.1644,2.333
3.254000,1.9496,-0.4570,0.0662,2.004
3.258000,1.6157,-0.0657,0.4756,1.686
3.265000,1.2857,0.5046,-0.0307,1.382
3.269000,0.7986,0.7423,-0.2677,1.123
3.273000,0.0986,0.9394,-0.3900,1.022
3.278000,-1.0181,0.5368,-0.4147,1.223
3.284000,-2.3917,-0.3598,-0.2706,2.434
3.288000,-3.1053,-0.4071,-0.7632,3.223
3.293000,-3.2896,0.0711,-0.5278,3.332
3.298000,-3.4282,0.0539,-0.3341,3.445
3.313000,-3.5549,-0.0424,-0.3800,3.575
3.315000,-3.5610,-0.3802,-0.2377,3.589
3.316000,-3.7152,-0.6033,-0.1174,3.766
3.319000,-3.7007,-0.6355,0.0958,3.756
3.333000,-3.3988,-0.4412,0.0363,3.427
3.334000,-2.6345,-0.3050,-0.1236,2.655
3.335000,-1.8970,-0.4513,-0.1013,1.953
3.345000,-1.2811,-0.3517,-0.2559,1.353
3.347000,-0.5920,-0.1042,-0.4704,0.763
3.350000,-0.1385,-0.0030,-0.3675,0.393
3.356000,0.1498,0.0576,-0.2268,0.278
3.357000,0.5600,0.1635,-0.1602,0.605
3.361000,0.7435,0.2837,-0.2656,0.839
3.366000,0.5746,0.1794,-0.2388,0.648
3.372000,0.3136,0.0800,-0.1928,0.377
3.376000,0.3380,0.0024,-0.2161,0.401
3.380000,0.5140,-0.1013,-0.4135,0.667
3.387000,0.4488,-0.2718,-0.3315,0.621
3.390000,0.3130,-0.2580,-0.1023,0.418
3.395000,0.4671,-0.3231,-0.0288,0.569
3.403000,0.5310,-0.2924,0.1379,0.622
3.405000,0.4144,-0.1493,0.0157,0.441
3.410000,0.1435,-0.1306,-0.1322,0.235
3.415000,0.0001,-0.1070,-0.3058,0.324
3.420000,-0.1429,0.0146,-0.5176,0.537
3.425000,-0.1351,0.0881,-0.5383,0.562
3.430000,-0.1801,0.0301,-0.6217,0.648
3.434000,-0.2063,0.1083,-0.5933,0.637
3.439000,-0.3686,0.0525,-0.5278,0.646
3.444000,-0.2728,0.0996,-0.2691,0.396
3.448000,0.0784,0.2374,-0.0722,0.260
3.464000,0.2833,0.3511,-0.2288,0.506
3.465000,0.2922,0.3572,-0.4782,0.665
3.465000,0.1915,0.3467,-0.5694,0.694
3.469000,0.2437,0.4293,-0.5888,0.768
3.473000,0.2940,0.3852,-0.5941,0.767
3.478000,0.1825,0.2336,-0.4901,0.573
3.483000,-0.1457,0.1134,-0.4261,0.464
3.488000,-0.6505,0.0770,-0.4835,0.814
3.493000,-0.9246,0.2150,-0.4165,1.037
3.498000,-0.9949,0.0420,-0.2058,1.017
3.502000,-0.9690,-0.3579,-0.0449,1.034
3.507000,-1.0670,-0.4204,0.2194,1.168
3.512000,-1.1929,-0.3013,-0.0603,1.232
3.517000,-1.2299,-0.3019,0.0075,1.266
3.522000,-1.0156,-0.1233,0.0543,1.024
3.527000,-0.8676,-0.1100,0.2307,0.904
3.531000,-0.7021,-0.0727,0.0321,0.707
3.536000,-0.4447,0.1770,-0.0042,0.479
3.542000,-0.1910,-0.0132,0.1182,0.225
3.546000,-0.0093,-0.0668,-0.1768,0.189
3.556000,0.1814,-0.1276,0.0160,0.222
3.557000,0.2814,-0.0018,0.1537,0.321
3.562000,0.2432,0.1240,0.0385,0.276
3.570000,-0.0148,0.1397,-0.0428,0.147
3.571000,-0.3923,-0.0190,-0.2099,0.445
3.577000,-0.5718,0.0686,-0.0657,0.580
3.581000,-0.5994,0.2517,-0.0673,0.654
3.586000,-0.4780,0.3438,-0.1116,0.599
3.591000,-0.0782,1.0763,0.6165,1.243
3.595000,-0.0707,0.3621,-0.9554,1.024
3.601000,-0.0108,-0.1745,-1.0260,1.041
3.605000,0.1112,-0.1942,-0.3859,0.446
3.610000,0.7786,0.0897,-0.2059,0.810
3.615000,1.1220,-0.0114,-0.3035,1.162
3.619000,1.8568,0.3202,-0.3291,1.913
3.624000,2.4106,0.5058,-0.0704,2.464
3.629000,2.7247,0.5121,-0.2566,2.784
3.634000,2.5875,0.2461,-0.3540,2.623
3.639000,2.1900,0.3725,-0.0659,2.222
3.643000,1.8163,0.0879,0.1249,1.823
3.653000,1.4323,-0.3779,-0.1642,1.490
3.654000,1.2070,-0.1236,0.0635,1.215
3.659000,0.5924,0.1591,0.0930,0.620
3.665000,-0.0463,0.6065,0.2974,0.677
3.668000,-0.9376,0.6088,0.6124,1.275
3.673000,-1.9633,0.1978,0.5102,2.038
3.679000,-2.3198,-0.0382,0.3334,2.344
3.683000,-1.9275,0.0105,0.0124,1.928
3.688000,-1.2571,-0.1656,-0.1828,1.281
3.693000,-0.8284,-0.2124,-0.1809,0.874
3.698000,-0.5616,0.1400,0.0750,0.584
3.703000,-0.5111,0.2625,-0.1277,0.589
3.707000,-0.3278,0.3061,-0.0240,0.449
3.712000,-0.2770,0.2014,-0.1645,0.380
3.717000,-0.4613,0.1636,-0.5687,0.750
3.722000,-0.4887,0.1377,-1.0621,1.177
3.727000,-0.4286,0.1308,-1.2462,1.324
3.733000,0.1970,0.1070,-1.1931,1.214
3.736000,0.6957,0.0784,-1.1132,1.315
3.741000,0.8200,-0.0244,-0.9320,1.242
3.747000,0.7449,-0.0698,-0.9151,1.182
3.751000,0.8578,-0.1702,-1.1722,1.463
3.756000,0.9531,-0.1535,-1.1083,1.470
3.761000,1.0045,-0.0580,-1.0964,1.488
3.766000,0.9477,0.0683,-0.7941,1.238
3.771000,0.6706,0.2160,-0.6939,0.989
3.776000,0.3735,0.1126,-0.8098,0.899
3.780000,0.2734,-0.0769,-1.1202,1.156
3.786000,0.2266,-0.1969,-0.9325,0.980
3.791000,0.1039,-0.2093,-0.5315,0.581
3.795000,-0.0803,-0.0736,-0.4044,0.419
3.801000,-0.2069,0.1145,-0.4622,0.519
3.805000,-0.1210,0.2665,-0.4154,0.508
3.810000,-0.0711,0.3275,-0.1467,0.366
3.815000,-0.1026,0.2498,0.1722,0.320
3.820000,-0.1747,0.1150,0.3933,0.445
3.824000,-0.1560,0.0210,0.2638,0.307
3.829000,0.3859,0.0108,0.1444,0.412
3.835000,0.7513,0.0653,0.3458,0.830
3.840000,0.4726,0.1437,0.6098,0.785
3.845000,-0.0107,0.3034,0.6479,0.715
3.849000,-0.1496,0.2670,0.3412,0.458
3.855000,-0.0139,0.1591,-0.0543,0.169
3.859000,0.2195,0.1255,-0.1665,0.303
3.864000,0.5080,0.2067,0.2457,0.601
3.868000,0.6345,0.3214,0.3122,0.777
3.874000,0.5304,0.2737,0.1027,0.606
3.880000,0.2315,0.0898,-0.0337,0.251
3.884000,0.0481,0.1047,-0.4012,0.417
3.889000,-0.0587,0.1601,-0.5006,0.529
3.907000,-0.1321,0.1462,-0.4329,0.476
3.909000,-0.4422,-0.0063,-0.4612,0.639
3.910000,-0.4661,0.1113,-0.4563,0.662
3.911000,-0.4404,0.1308,-0.3729,0.592
3.921000,-0.3579,0.2386,-0.1657,0.461
3.921000,-0.4242,0.1025,-0.0378,0.438
3.922000,-0.3693,0.0550,-0.2996,0.479
3.929000,-0.3126,0.1103,-0.2124,0.394
3.933000,-0.1463,0.2443,-0.1398,0.317
3.937000,-0.0617,0.1703,-0.1102,0.212
3.942000,-0.0249,0.1274,-0.1233,0.179
3.947000,0.0715,0.1110,-0.2027,0.242
3.952000,0.0772,-0.0058,-0.1095,0.134
3.957000,-0.0769,-0.1988,0.0130,0.214
3.963000,-0.3053,-0.3557,0.1144,0.483
3.967000,-0.5461,-0.4312,0.0369,0.697
3.972000,-0.6493,-0.2988,-0.2628,0.762
3.982000,-0.5384,-0.0376,-0.7231,0.902
3.984000,-0.2658,0.1658,-0.9788,1.028
3.987000,-0.2161,0.2900,-0.8200,0.896
3.991000,-0.6066,0.1200,-0.3420,0.707
3.998000,-0.8520,-0.2100,-0.0199,0.878
4.005000,-1.0248,-0.4800,0.0989,1.136
4.007000,-0.7473,-0.4223,0.0027,0.858
4.013000,-0.6338,-0.4172,-0.1097,0.767
4.015000,-0.6218,-0.4457,-0.0775,0.769
4.021000,-0.1305,-0.3522,-0.0965,0.388
4.025000,0.2070,-0.2779,-0.1263,0.369
4.031000,0.3152,-0.2155,-0.1649,0.416
4.035000,0.3091,-0.1078,-0.0933,0.340
4.039000,0.3372,0.1026,0.0864,0.363
4.050000,0.5595,0.4085,0.1639,0.712
4.051000,0.6321,0.4154,0.0914,0.762
4.056000,0.6363,0.2933,-0.2313,0.738
4.064000,0.4887,0.0878,-0.5558,0.745
4.065000,0.1080,-0.4878,-5.0770,5.101
4.069000,-0.1181,-0.5515,-5.0175,5.049
4.074000,0.7883,0.0970,-1.9259,2.083
4.079000,0.3200,0.2956,-1.0308,1.119
4.084000,0.0836,0.3339,0.1213,0.365
4.089000,-0.2353,0.3556,0.8078,0.913
4.094000,-0.6950,0.2627,0.6711,1.001
4.099000,-0.8571,0.0481,0.5885,1.041
4.103000,-0.7890,-0.1425,0.4908,0.940
4.108000,-0.5000,-0.2324,0.5092,0.750
4.114000,-0.2980,-0.3317,0.4324,0.621
4.118000,-0.0510,-0.3067,0.2124,0.377
4.122000,0.1599,-0.1622,-0.1800,0.290
4.128000,0.2344,0.0489,-0.6542,0.697
4.133000,0.1820,0.1736,-0.9551,0.988
4.137000,0.0884,0.2455,-0.7981,0.840
4.143000,0.0920,0.2239,-0.2170,0.325
4.148000,0.1614,0.1927,0.3031,0.394
4.152000,0.3924,0.1853,0.6573,0.788
4.156000,0.3935,0.0871,0.5186,0.657
4.163000,-0.0330,-0.1424,0.1481,0.208
4.166000,-0.3304,-0.1901,0.2225,0.441
4.171000,-0.1549,0.0013,0.1538,0.218
4.182000,0.3097,0.3287,-0.0476,0.454
4.183000,0.5048,0.4050,-0.0609,0.650
4.187000,0.3329,0.2925,-0.0563,0.447
4.195000,0.1210,0.1469,0.2242,0.294
4.196000,-0.1123,-0.0057,0.3640,0.381
4.201000,-0.0902,-0.0411,0.5614,0.570
4.206000,-0.0827,-0.0333,0.5511,0.558
4.211000,0.0010,-0.0996,0.5123,0.522
4.217000,-0.0951,-0.1253,0.2274,0.276
4.221000,-0.0958,-0.0578,-0.0337,0.117
4.227000,-0.0037,0.0789,-0.1967,0.212
4.231000,-0.0029,0.1197,-0.2787,0.303
4.235000,-0.0547,0.1103,-0.1841,0.222
4.239000,-0.1355,0.1152,-0.0663,0.190
4.245000,-0.6923,0.0579,-0.3719,0.788
4.250000,-1.1377,0.0768,-1.2096,1.662
4.254000,-0.9585,-0.0862,-1.7170,1.968
4.260000,-0.2761,-0.1872,-1.0426,1.095
4.265000,0.0324,0.0705,-0.0341,0.085
4.269000,0.1759,0.2635,0.4701,0.567
4.276000,0.0041,0.1432,0.3271,0.357
4.278000,0.3587,-0.0604,0.0898,0.375
4.284000,0.5798,-0.1131,-0.1992,0.623
4.288000,0.3474,-0.0557,-0.2821,0.451
4.294000,0.4746,-0.0199,-0.3169,0.571
4.298000,0.3617,-0.0796,-0.3996,0.545
4.304000,0.0947,-0.0817,-0.3338,0.357
4.309000,0.1369,0.0596,-0.1411,0.205
4.317000,-0.2246,0.0239,-0.0701,0.236
4.317000,-0.2775,0.0266,0.1139,0.301
4.325000,-0.8713,-0.1166,0.2141,0.905
4.328000,-1.0861,-0.1737,0.3045,1.141
4.333000,-0.8272,-0.1377,0.2106,0.865
4.337000,-0.6491,-0.1353,0.1124,0.673
4.342000,-0.5775,-0.1616,-0.0803,0.605
4.347000,-0.3849,-0.1066,-0.0618,0.404
4.352000,-0.1574,-0.0637,-0.1338,0.216
4.358000,0.0482,0.1059,-0.3060,0.327
4.361000,0.1556,0.1844,-0.2202,0.327
4.367000,0.3061,0.2438,-0.0554,0.395
4.371000,0.4426,0.2649,0.2057,0.555
4.376000,0.5655,0.3316,0.4679,0.805
4.381000,0.4000,0.3028,0.4394,0.667
4.385000,0.1299,0.2622,0.3569,0.461
4.391000,0.1211,0.3078,0.1371,0.358
4.398000,0.4303,0.5351,-0.2990,0.749
4.400000,0.6105,0.5446,-0.3481,0.889
4.408000,0.7795,0.1550,-0.6439,1.023
4.412000,0.8562,-0.1648,-1.3689,1.623
4.417000,0.6853,-0.0806,-2.3685,2.467
4.421000,0.4536,0.1155,-2.7456,2.785
4.430000,0.4742,0.0888,-2.3979,2.446
4.430000,0.6964,-0.0456,-1.5000,1.654
4.436000,0.2576,-0.2875,-0.7153,0.813
4.440000,-0.4551,-0.3642,0.4530,0.738
4.446000,-1.1462,-0.2352,1.2271,1.696
4.450000,-1.2908,-0.1541,1.1449,1.732
4.455000,-0.7991,-0.1733,0.9073,1.221
4.462000,-0.3523,-0.1734,0.6910,0.795
4.466000,-0.2151,-0.1447,0.6511,0.701
4.469000,0.0076,-0.0347,0.5458,0.547
4.474000,0.4118,0.0658,0.1551,0.445
4.478000,0.5894,0.0300,-0.1603,0.612
4.483000,0.2799,-0.1898,-0.3009,0.453
4.489000,-0.0143,-0.2801,-0.2333,0.365
4.494000,0.2466,-0.5304,-0.1913,0.615
4.498000,0.0610,-0.5246,-0.0543,0.531
4.503000,0.0049,-0.3158,0.0100,0.316
4.508000,0.5038,-0.0498,-0.0500,0.509
4.513000,0.9652,0.1012,-0.2053,0.992
4.518000,1.0022,0.1279,-0.3222,1.060
4.524000,0.7447,0.1690,-0.0511,0.765
4.527000,0.4787,0.1577,-0.0260,0.505
4.532000,0.2326,0.0747,-0.3216,0.404
4.540000,-0.1680,-0.1636,-0.4839,0.538
4.544000,-0.5087,-0.2010,-0.4752,0.725
4.547000,-0.8548,-0.0115,-0.2785,0.899
4.552000,-1.2473,0.1562,-0.3190,1.297
4.558000,-1.4858,0.1491,-0.7419,1.667
4.562000,-1.6618,-0.2142,-0.6793,1.808
4.567000,-1.5156,-0.5368,-0.2822,1.632
4.572000,-1.0714,-0.3357,-0.0694,1.125
4.576000,-0.5772,-0.1016,0.0571,0.589
4.581000,-0.3546,0.0724,0.1072,0.377
4.586000,-0.0109,0.0312,0.1031,0.108
4.591000,0.2030,-0.0625,0.2029,0.294
4.597000,0.1889,-0.0103,0.1380,0.234
4.602000,-0.0379,0.0610,0.0211,0.075
4.606000,-0.3437,-0.0303,-0.2007,0.399
4.612000,-0.2363,0.0959,-0.3288,0.416
4.616000,0.0496,0.2650,-0.4117,0.492
4.620000,0.0700,0.1734,-0.4302,0.469
4.625000,0.0569,0.0173,-0.3247,0.330
4.630000,0.1682,-0.0859,-0.1429,0.237
4.635000,0.2798,-0.0266,-0.2768,0.394
4.640000,0.2268,-0.0150,-0.0476,0.232
4.645000,-0.0432,-0.2329,-0.3611,0.432
4.650000,-0.2441,-0.2904,-0.6820,0.780
4.654000,-0.1538,-0.3145,-0.5922,0.688
4.660000,-0.1477,-0.4534,-0.3912,0.617
4.665000,0.0491,-0.1381,-0.4039,0.430
4.670000,0.0280,-0.0766,-0.3765,0.385
4.678000,0.1455,-0.1012,-0.0793,0.194
4.679000,-0.0218,-0.5870,0.1411,0.604
4.685000,0.1165,-0.3361,0.6030,0.700
4.689000,-0.2305,-0.2026,0.4892,0.577
4.694000,-0.8767,-0.2173,0.3524,0.970
4.698000,-1.2040,-0.2224,0.2216,1.244
4.710000,-1.5142,-0.1918,0.0270,1.527
4.711000,-2.0135,-0.2711,0.0721,2.033
4.714000,-1.8231,-0.1163,-0.1334,1.832
4.728000,-1.6341,-0.1530,-0.7121,1.789
4.739000,-1.2431,-0.0344,-0.4471,1.322
4.740000,-0.7283,-0.2314,-0.5939,0.968
4.740000,-0.8394,-0.4783,-0.6030,1.139
4.741000,-1.2772,-0.7823,-0.5646,1.601
4.743000,-1.2873,-1.2197,-0.6630,1.893
4.747000,-0.1840,-0.6193,-0.6449,0.913
4.753000,-0.0054,-0.7891,-0.6250,1.007
4.757000,-0.2506,-0.9393,-0.1007,0.977
4.762000,0.0672,-0.7999,-0.0621,0.805
4.768000,1.4698,0.0851,-0.4369,1.536
4.772000,2.3884,0.6084,-0.2064,2.473
4.776000,2.9616,0.5600,-0.1549,3.018
4.781000,2.3135,-0.0235,-0.3185,2.335
4.787000,0.9884,-0.6659,-0.0589,1.193
4.791000,0.1845,-0.5428,-0.6363,0.856
4.796000,-0.0614,-0.0829,-1.2833,1.287
4.812000,-0.3883,-0.1828,-1.5467,1.605
4.813000,-0.4026,0.2598,-0.7963,0.929
4.814000,-0.5176,-0.2757,-0.5311,0.791
4.835000,-0.9016,-0.3372,-0.5949,1.132
4.836000,0.0783,0.7056,0.0486,0.712
4.836000,0.6875,0.6598,-0.2042,0.974
4.836000,0.6333,0.3035,0.1015,0.710
4.836000,0.9394,0.3996,0.1119,1.027
4.841000,0.6851,-0.2357,-0.1083,0.733
4.845000,1.0755,-0.2631,0.1321,1.115
4.851000,1.6403,-0.1566,0.2158,1.662
4.860000,1.8542,-0.0312,-0.1131,1.858
4.861000,1.4593,0.1607,-0.4165,1.526
4.864000,0.7990,-0.1210,-0.9760,1.267
4.869000,0.4988,-0.2972,-0.9335,1.099
4.874000,0.1825,0.1313,-0.8212,0.851
4.879000,0.0541,0.3033,-0.8209,0.877
4.884000,-0.2698,-0.0723,-0.6193,0.679
4.890000,0.0255,-0.0914,0.6688,0.675
4.895000,0.2297,-0.4904,0.5365,0.762
4.903000,0.4337,-0.1025,0.6785,0.812
4.906000,0.5928,0.1202,0.8509,1.044
4.911000,0.3534,-0.0421,0.8001,0.876
4.913000,-0.1295,-0.2878,0.5927,0.671
4.925000,-0.2252,-0.1219,0.0736,0.267
4.926000,-0.0416,0.4070,-0.4540,0.611
4.928000,0.0131,0.2780,-0.9738,1.013
4.933000,0.1156,0.4981,-0.9103,1.044
4.938000,0.1325,0.1204,-0.7734,0.794
4.943000,0.5110,0.0203,-0.4441,0.677
4.948000,-0.0230,0.0492,-0.1017,0.115
4.953000,0.6861,0.1140,0.3190,0.765
4.958000,0.7937,0.2574,0.0390,0.835
4.963000,0.7857,0.5559,-0.1406,0.973
4.967000,0.5593,0.2516,-0.2315,0.656
4.972000,0.0834,0.0551,-0.3134,0.329
4.976000,0.4137,-0.0671,-0.2400,0.483
4.983000,0.7235,0.0593,-0.0998,0.733
4.987000,0.6093,0.2738,-0.8060,1.047
4.991000,1.0013,-0.1933,-0.6083,1.187
4.996000,1.1202,0.0976,-0.3371,1.174
5.004000,1.5303,0.5362,-0.6905,1.762
5.006000,1.5412,0.9380,-1.0610,2.093
5.011000,1.4669,0.9065,-0.7366,1.875
5.018000,0.8750,0.5092,-0.1595,1.025
5.024000,0.8117,0.1456,0.1706,0.842
5.026000,0.4805,-0.1028,0.4647,0.676
5.030000,-0.2318,-0.3605,0.3908,0.580
5.043000,-1.2649,-0.0752,-0.4764,1.354
5.047000,-0.9159,-0.6576,0.1838,1.142
5.047000,-0.8861,-1.1818,1.7027,2.254
5.058000,-0.9863,-0.8735,1.4314,1.945
5.059000,0.3156,-1.2465,1.5265,1.996
5.060000,-0.1817,-0.2974,1.1370,1.189
5.073000,-0.1513,0.6962,-0.6431,0.960
5.074000,-0.6140,0.9813,-0.8501,1.436
5.075000,-0.6635,1.5145,-1.0698,1.969
5.085000,0.0175,1.6767,-1.1229,2.018
5.085000,0.5935,1.0475,-0.1467,1.213
5.088000,0.1325,1.6977,-0.8160,1.888
5.093000,0.1287,1.1068,-1.3649,1.762
5.099000,-0.1903,0.7818,-0.9901,1.276
5.104000,-0.7653,0.5623,-1.0075,1.384
5.108000,-0.9105,-0.2974,-0.6108,1.136
5.115000,-1.6670,-0.3292,-0.6037,1.803
5.118000,-1.2309,-0.5710,-0.2655,1.383
5.124000,-1.2111,-0.5784,0.4872,1.428
5.128000,-1.3370,-0.1004,0.0226,1.341
5.133000,-0.8439,-0.3255,-0.1447,0.916
5.139000,-0.4917,0.0854,-0.0181,0.499
5.143000,0.4089,0.1255,0.4601,0.628
5.149000,0.9724,0.4595,0.5350,1.201
5.153000,1.1138,0.5134,0.3764,1.283
5.157000,1.2079,0.3641,0.3774,1.317
5.166000,1.8518,0.3942,0.6163,1.991
5.167000,2.1854,0.4145,0.7599,2.351
5.172000,2.1233,0.4825,0.1680,2.184
5.176000,1.1517,0.1370,-0.3990,1.227
5.182000,0.5108,-0.6743,-0.6504,1.067
5.187000,-0.1767,-1.0328,-0.6045,1.210
5.191000,-0.7227,-1.6371,-0.4912,1.856
5.198000,-0.6265,-1.5380,-0.6217,1.773
5.201000,-0.5340,-2.0771,-0.1732,2.152
5.206000,-0.6367,-1.6524,-0.0569,1.772
5.211000,-0.1503,-1.3572,-0.3175,1.402
5.216000,0.4693,-1.4495,0.3287,1.559
5.221000,1.9214,-0.9921,0.6600,2.261
5.226000,2.3792,-0.4946,0.9865,2.623
5.231000,2.0738,0.6954,0.7335,2.307
5.235000,2.5346,0.8324,1.1642,2.911
5.241000,1.8613,1.6672,0.8752,2.648
5.247000,1.9854,1.0935,0.5360,2.329
5.251000,0.0068,1.2782,-0.0401,1.279
5.255000,-0.9236,0.7436,-0.0835,1.189
5.260000,-0.9516,0.0114,-1.2498,1.571
5.265000,-2.0984,0.0330,-1.3486,2.495
5.269000,-2.6606,-0.3039,-1.2512,2.956
5.275000,-2.8492,-0.9199,-1.1029,3.191
5.281000,-2.5822,-0.6558,-1.7964,3.213
5.284000,-2.2585,-0.2032,-0.3423,2.293
5.289000,-1.1167,0.1675,-0.1416,1.138
5.294000,0.6574,-0.0382,0.1153,0.669
5.299000,1.5635,0.4424,0.2156,1.639
5.304000,1.6575,-0.0144,0.6754,1.790
5.309000,1.9647,0.5786,0.1132,2.051
5.314000,1.9088,-0.2677,-0.2797,1.948
5.318000,0.8521,-0.2883,-0.1464,0.911
5.323000,0.6990,-0.3518,-1.1495,1.391
5.330000,0.0666,-1.2635,-0.7196,1.456
5.333000,-0.8278,-1.2324,-1.1839,1.899
5.338000,1.0066,-2.9817,-8.0945,8.685
5.343000,-2.9880,-0.8427,-0.2335,3.113
5.348000,-2.7979,-0.5323,0.7289,2.940
5.353000,-1.8606,0.5615,-0.4687,1.999
5.357000,-1.2889,0.7338,0.0109,1.483
5.363000,-1.7713,0.4949,-0.7759,1.996
5.369000,-1.4537,0.0316,-0.7655,1.643
5.372000,-1.0007,-0.4551,-1.8932,2.189
5.377000,-1.8629,-0.6352,-1.8178,2.679
5.381000,-1.9364,-1.1185,-1.0729,2.480
5.387000,-1.5546,-2.0839,-1.8611,3.197
5.392000,-0.7662,-1.2723,-0.0591,1.486
5.396000,-0.0748,-1.3386,2.7810,3.087
5.402000,0.7444,-3.9931,-0.3183,4.074
5.406000,0.3314,-1.9626,0.0281,1.991
5.412000,2.3618,-0.5655,8.3973,8.741
5.416000,2.6650,-2.2652,0.3852,3.519
5.421000,-1.1841,-1.3581,1.2879,2.215
5.426000,-1.2362,-2.4047,-0.6446,2.780
5.431000,-1.6180,-2.7881,-0.6807,3.295
5.436000,0.4865,0.7217,-0.7759,1.166
5.440000,3.3917,6.5811,-1.2331,7.506
5.451000,-1.8769,3.1943,-2.7621,4.621
5.452000,-1.8760,3.1913,-2.7724,4.625
5.455000,-3.0200,-0.2364,1.8212,3.535
5.460000,-0.7074,3.9110,2.0790,4.485
5.465000,0.9147,3.5457,2.0409,4.192
5.470000,-0.1909,3.1354,3.5401,4.733
5.474000,-0.2624,3.4326,2.8460,4.467
5.479000,-0.5882,3.3180,2.2041,4.027
5.484000,-0.0719,2.4553,2.5101,3.512
5.489000,0.7777,1.8301,2.3168,3.053
5.494000,1.6656,1.6523,1.6490,2.868
5.503000,1.1021,0.5712,0.5711,1.366
5.506000,0.7274,0.4450,-0.3011,0.904
5.514000,0.4642,0.2378,-0.8669,1.012
5.515000,-0.1161,-0.1626,-0.8816,0.904
5.519000,-0.3261,-0.5360,-0.6827,0.927
5.526000,0.3860,-0.1370,-0.6929,0.805
5.529000,0.1968,-0.1471,-0.7068,0.748
5.534000,0.0246,-0.0758,-0.4877,0.494
5.538000,0.1567,0.2249,-0.5918,0.652
5.544000,0.1030,0.3842,-0.3923,0.559
5.549000,-0.3353,-0.3170,-0.5906,0.749
5.553000,0.0244,0.1084,-0.6962,0.705
5.559000,0.3407,0.2657,-0.8075,0.916
5.564000,0.9829,0.5160,-0.6284,1.276
5.568000,0.3351,0.1854,-0.4960,0.627
5.574000,-0.0672,0.1110,-0.4026,0.423
5.579000,0.1905,0.0798,-0.7020,0.732
5.584000,-0.1087,-0.0207,-0.5335,0.545
5.588000,-0.3288,-0.0899,-0.5094,0.613
5.596000,-0.1548,-0.1064,-0.7179,0.742
5.598000,0.1455,-0.0965,-0.8771,0.894
5.602000,0.5123,-0.1606,-1.0691,1.196
5.611000,0.4046,-3.9097,-0.8292,4.017
5.613000,1.4129,-0.1930,-0.0804,1.428
5.617000,-0.2572,0.1662,-0.0615,0.312
5.621000,-0.0851,-0.4788,-0.3488,0.598
5.627000,0.9952,-0.7930,-0.7228,1.464
5.631000,1.1323,-0.4998,-0.3064,1.275
5.637000,0.1762,-0.3455,-0.1488,0.415
5.656000,-0.5227,-0.4566,-0.0774,0.698
5.661000,-0.5814,-0.6583,-0.0228,0.879
5.662000,-0.3830,-0.7404,-0.0255,0.834
5.662000,-0.5224,-0.7650,-0.3459,0.989
5.663000,-0.4072,-0.5721,-0.2408,0.742
5.666000,-0.5677,-0.5946,-0.3297,0.886
5.670000,-0.2154,-0.4043,-0.3161,0.557
5.677000,-0.3472,-0.3624,-0.4179,0.653
5.684000,-0.2743,-0.5595,-0.2642,0.677
5.685000,-0.1733,-0.7515,-0.6803,1.028
5.689000,-0.1638,-0.8262,-0.5926,1.030
5.695000,-0.1686,-0.9986,-0.3647,1.076
5.699000,-0.3480,-1.2831,-0.3457,1.374
5.704000,-0.4514,-1.1633,-0.2264,1.268
5.710000,-0.5608,-0.8549,-0.3731,1.088
5.714000,-1.3586,-1.6318,-1.0997,2.391
5.720000,-0.9369,-1.1554,-0.5599,1.589
5.725000,-0.3004,-0.5410,0.3826,0.728
5.729000,-0.2515,-0.0971,0.6694,0.722
5.733000,-0.4611,-0.8272,0.8094,1.246
5.738000,0.1775,0.2405,1.3670,1.399
5.744000,0.1803,-0.1797,0.5784,0.632
5.748000,-0.4907,-0.8313,0.2868,1.007
5.754000,-0.1225,-0.1846,0.8193,0.849
5.769000,-0.2946,0.5449,-0.7903,1.004
5.774000,0.3600,0.4778,0.3926,0.716
5.774000,1.6502,-0.6098,2.0865,2.729
5.775000,0.9480,-0.4512,0.8210,1.333
5.793000,-0.0726,0.2711,-0.0778,0.291
5.794000,-0.6235,0.7201,-1.9830,2.200
5.794000,-0.1882,0.8176,-0.3641,0.915
5.794000,0.6721,-0.2608,1.0995,1.315
5.797000,-1.3279,0.9898,-1.7486,2.408
5.801000,-1.2043,1.3308,-0.4725,1.856
5.806000,-0.2361,1.3322,-0.2127,1.370
5.811000,0.5641,0.8699,0.9244,1.389
5.817000,0.6585,-0.2874,1.6489,1.799
5.823000,0.6240,-1.1353,0.7053,1.475
5.826000,-0.2589,2.3003,-3.2328,3.976
5.833000,-0.7666,1.9730,-1.9181,2.856
5.836000,0.0466,1.5604,0.3258,1.595
5.843000,-0.1374,1.4422,0.8929,1.702
5.847000,0.4490,1.8425,0.8904,2.095
5.851000,0.5251,1.2575,1.1319,1.771
5.872000,0.5820,0.3383,1.4310,1.581
5.874000,0.8228,0.0723,0.8629,1.195
5.874000,0.6995,-0.3082,0.5100,0.919
5.875000,0.4290,0.3465,-0.3411,0.648
5.876000,0.3403,1.4832,-1.9235,2.453
5.881000,0.0987,2.0692,-1.6551,2.652
5.887000,-0.0113,1.9736,-1.0192,2.221
5.905000,0.2641,1.8210,-0.5144,1.911
5.906000,0.6838,1.8023,-0.7873,2.082
5.907000,0.6914,1.3799,-0.8262,1.751
5.907000,0.0362,0.4705,-0.1223,0.487
5.910000,-0.4701,0.3198,0.9042,1.068
5.915000,-0.1588,0.1618,0.6600,0.698
5.920000,-0.1397,0.0612,0.6902,0.707
5.925000,-0.1806,-0.0274,0.5330,0.563
5.928000,0.6818,0.1397,0.2120,0.728
5.933000,0.9804,0.2372,0.1143,1.015
5.939000,0.0587,0.0930,1.3036,1.308
5.944000,-0.3717,-0.1802,0.9283,1.016
5.948000,-0.6491,-0.2597,0.8252,1.082
5.953000,-1.0849,-0.4228,0.6376,1.327
5.958000,-0.5346,-0.3373,-0.2420,0.677
5.963000,-0.2967,-0.2471,-0.7982,0.887
5.968000,-0.3823,-0.2094,-1.0254,1.114
5.979000,-0.4159,-0.2002,-1.2444,1.327
5.980000,-0.0415,-0.1311,-1.2191,1.227
5.983000,0.3203,-0.0499,-0.9734,1.026
6.004000,0.3119,-0.1025,-0.5645,0.653
6.005000,0.1890,-0.1144,-0.6470,0.684
6.006000,0.4108,-0.0735,-0.8550,0.951
6.007000,0.6090,-0.0851,-0.8467,1.046
6.007000,0.3249,-0.1061,-0.7323,0.808
6.013000,0.2591,-0.0768,-0.7867,0.832
6.018000,0.2727,-0.0785,-0.5912,0.656
6.022000,0.1886,-0.1040,-0.7267,0.758
6.026000,0.0619,-0.1221,-0.8274,0.839
6.031000,0.3348,-0.1353,-0.6543,0.747
6.037000,0.2613,-0.1150,-0.5253,0.598
6.042000,0.1931,-0.1711,-0.6650,0.713
6.047000,0.3905,-0.1361,-0.4374,0.602
6.051000,-1.6327,-2.8591,0.0792,3.293
6.058000,1.1141,1.1152,0.1563,1.584
6.062000,0.5450,-0.5866,-0.0199,0.801
6.066000,-0.1034,-0.2429,0.2248,0.347
6.088000,0.3514,-0.1937,0.0636,0.406
6.090000,0.2997,-0.3645,0.1158,0.486
6.091000,-0.2219,-0.4179,-0.0586,0.477
6.092000,-0.5521,-0.3280,0.0329,0.643
6.093000,0.0521,-0.1379,0.0506,0.156
6.098000,0.3763,-0.0627,0.4322,0.577
6.099000,1.0291,-0.5614,1.2405,1.707
6.105000,1.0554,-0.8448,1.6185,2.109
6.113000,0.0101,0.3177,-0.3529,0.475
6.113000,-0.2822,0.4177,-0.4821,0.698
6.119000,-0.2413,1.1821,-0.8058,1.451
6.123000,-0.2713,1.2336,-0.4303,1.334
6.129000,0.2573,1.2133,0.1758,1.253
6.135000,0.1644,1.3604,0.0935,1.373
6.139000,0.1368,1.0459,0.0695,1.057
6.143000,0.0814,1.0400,0.0271,1.044
6.149000,-0.2650,0.5991,0.0381,0.656
6.154000,-0.5228,0.4813,0.1287,0.722
6.158000,-0.5493,0.3109,0.2201,0.669
6.163000,-0.6266,0.3199,0.3841,0.802
6.171000,-0.4799,0.2045,0.3459,0.626
6.173000,-0.5112,0.0939,0.2465,0.575
6.177000,-0.4715,0.1076,0.4062,0.632
6.182000,-0.5091,0.1666,0.2916,0.610
6.188000,-0.3706,0.1848,0.4243,0.593
6.192000,-0.2662,0.1646,0.3212,0.448
6.197000,-0.2698,0.1610,0.4534,0.552
6.203000,-0.2330,0.1669,0.3642,0.463
6.207000,-0.2371,0.1991,0.3572,0.473
6.211000,-0.2892,0.2262,0.4585,0.587
6.216000,-0.3057,0.1816,0.4630,0.584
6.234000,-0.2078,0.1632,0.4042,0.483
6.234000,-0.1818,-0.1541,0.2939,0.378
6.234000,0.2528,-0.4876,-0.0689,0.554
6.236000,1.0194,-0.3500,-0.6228,1.245
6.242000,0.6799,-0.5588,-0.9696,1.309
6.246000,0.1932,-0.5951,-1.2080,1.360
6.252000,-0.0278,-0.5212,-1.1282,1.243
6.258000,-1.5972,-0.4519,-0.2837,1.684
6.260000,-0.9226,-0.2799,0.4287,1.055
6.265000,0.9470,-0.4333,-1.8949,2.162
6.271000,0.5810,-0.3494,-1.7983,1.922
6.275000,0.1274,-0.2104,-1.2896,1.313
6.280000,0.4010,-0.1645,-0.8768,0.978
6.286000,0.2971,-0.1185,-0.3463,0.471
6.289000,0.8820,-0.2303,-0.8738,1.263
6.294000,0.0527,0.0287,-0.3885,0.393
6.302000,-0.1255,0.0484,0.0646,0.149
6.305000,-0.1076,-0.0347,0.0467,0.122
6.309000,0.0608,-0.1297,-0.0782,0.163
6.314000,0.4253,-0.2748,-0.2340,0.558
6.319000,-0.3571,-0.4603,-0.5382,0.793
6.324000,-0.6685,-0.7171,-0.6802,1.193
6.329000,-0.1994,0.1592,-0.2346,0.347
6.346000,0.3310,0.5468,-0.0546,0.642
6.348000,0.3883,0.3723,0.2788,0.606
6.349000,0.2912,0.5706,0.2334,0.682
6.350000,0.0705,0.5129,0.3183,0.608
6.361000,0.2472,0.5483,0.3543,0.698
6.362000,1.1101,1.0018,0.4083,1.550
6.367000,0.9295,0.6134,0.4012,1.184
6.369000,0.5880,0.3472,0.2516,0.728
6.373000,0.3600,0.3658,-0.2534,0.572
6.378000,-0.0129,0.2386,-0.1510,0.283
6.383000,0.4321,0.3289,0.1619,0.567
6.387000,0.2153,0.3738,-0.2490,0.498
6.392000,-0.1753,0.3995,-0.4715,0.642
6.398000,-0.3075,0.4658,-0.2279,0.603
6.404000,-0.5490,0.3910,0.1815,0.698
6.407000,-0.6955,0.3951,0.3617,0.878
6.412000,-0.6728,0.4922,0.5164,0.981
6.418000,-0.0338,1.0551,0.7343,1.286
6.423000,0.1560,0.8142,0.6807,1.073
6.427000,-0.5018,0.5281,0.9898,1.229
6.433000,-0.3201,0.3903,1.0232,1.141
6.441000,-1.1593,-0.1227,0.9486,1.503
6.442000,-3.8834,-1.5027,1.6619,4.483
6.448000,-3.4736,-1.4692,2.8807,4.746
6.455000,-0.0616,0.1624,2.7295,2.735
6.457000,2.5688,1.4665,2.3523,3.779
6.462000,3.3054,0.8045,-0.3520,3.420
6.468000,7.3268,0.9730,-0.7288,7.427
6.473000,-0.4862,-0.5264,-2.5462,2.645
6.475000,0.0260,-0.5750,-2.7116,2.772
6.485000,-6.0880,-2.1792,2.1140,6.803
6.492000,-2.0515,-1.8148,-6.5705,7.119
6.493000,-0.5219,-0.8217,-3.1715,3.318
6.499000,0.0468,-0.1401,-0.9142,0.926
6.500000,1.1579,-0.0831,-0.7657,1.391
6.506000,1.1226,0.0839,-0.4199,1.201
6.509000,0.1766,-0.0790,-0.0627,0.203
6.516000,-0.0603,-0.1199,0.3059,0.334
6.523000,0.1142,-0.1176,0.0841,0.184
6.524000,0.0498,-0.0891,0.0084,0.102
6.529000,-0.0645,-0.0439,-0.0170,0.080
6.534000,-0.1332,-0.0489,-0.1427,0.201
6.538000,-0.0373,-0.0085,-0.1111,0.118
6.543000,-0.1680,-0.0303,-0.3232,0.366
6.549000,-0.1983,0.0292,-0.4248,0.470
6.556000,-0.1787,0.0744,-0.3120,0.367
6.558000,1.1865,1.7756,0.0370,2.136
6.564000,0.9136,0.3944,-0.4344,1.086
6.569000,-2.4579,-2.0056,-1.3281,3.439
6.574000,-0.6912,-0.1416,-0.0449,0.707
6.578000,0.2648,0.0473,0.0422,0.272
6.584000,-0.2503,-0.0366,-0.6475,0.695
6.588000,0.2414,0.1115,-0.1229,0.293
6.593000,-0.1778,-0.0848,-0.0386,0.201
6.616000,-0.0470,-0.0465,0.1413,0.156
6.617000,-0.0048,-0.0228,0.1851,0.187
6.619000,-0.1683,-0.0540,-0.0313,0.179
6.620000,0.5478,0.2112,0.0677,0.591
6.621000,-0.2224,0.2514,-1.1376,1.186
6.627000,-0.8004,-0.2819,-0.5834,1.030
6.628000,0.5761,0.2345,0.5290,0.817
6.640000,1.6248,2.1316,0.9670,2.849
6.641000,-1.1792,-0.9302,-0.1832,1.513
6.641000,-3.0219,-2.2890,-0.1347,3.793
6.646000,0.1350,0.1010,0.9882,1.003
6.653000,0.6135,0.0240,-0.1259,0.627
6.657000,0.2107,0.0906,-0.6412,0.681
6.661000,0.1623,-0.0054,-0.2770,0.321
6.666000,0.4584,0.0374,-0.0619,0.464
6.671000,0.0164,0.0539,-0.2128,0.220
6.677000,-0.2266,0.0297,-0.2511,0.340
6.682000,-0.3167,-0.0471,-0.2106,0.383
6.692000,-0.2087,0.0006,-0.2254,0.307
6.694000,-0.2969,-0.0641,-0.1711,0.349
6.696000,0.0114,0.0768,-0.2246,0.238
6.702000,-0.3760,-0.0287,-0.4050,0.553
6.707000,-0.2617,-0.0408,0.1051,0.285
6.721000,0.2538,0.1097,0.1918,0.337
6.722000,0.2361,0.1380,-0.3354,0.433
6.722000,-0.0346,0.0540,-0.3628,0.368
6.725000,0.0392,0.0729,-0.3715,0.381
6.731000,-0.2335,-0.0587,-0.4043,0.471
6.738000,-0.2671,0.0057,-0.2370,0.357
6.740000,-0.3918,-0.0470,-0.2015,0.443
6.744000,-0.1058,0.0080,-0.2737,0.294
6.749000,-0.1047,-0.0376,-0.1477,0.185
6.755000,-0.0918,0.0149,0.0640,0.113
6.758000,-0.3323,-0.1071,0.0366,0.351
6.764000,0.0820,0.0746,0.0525,0.123
6.769000,-0.1088,0.0552,-0.3616,0.382
6.773000,-0.0151,0.1052,-0.0490,0.117
6.778000,0.6259,0.2459,-0.2598,0.721
6.784000,-0.3032,0.0113,-0.7476,0.807
6.788000,-0.0125,0.1594,-0.4087,0.439
6.795000,-0.3123,0.0348,-0.2280,0.388
6.801000,-0.2012,0.0060,0.0599,0.210
6.803000,-0.0330,0.0274,0.1015,0.110
6.807000,-0.0324,0.0058,-0.1150,0.120
6.817000,-0.1442,0.0391,-0.1979,0.248
6.818000,-0.1649,0.0151,-0.2398,0.291
6.822000,-0.3485,0.0389,-0.2652,0.440
6.847000,-0.2880,0.0746,-0.2113,0.365
6.848000,-0.4579,-0.1287,-0.5331,0.714
6.849000,-0.4227,-0.0235,-0.6764,0.798
6.851000,-0.2663,0.0601,-0.4737,0.547
6.852000,-0.2346,0.0289,-0.3649,0.435
6.853000,0.0048,0.0862,-0.2064,0.224
6.858000,0.1650,0.0670,-0.2535,0.310
6.861000,0.2443,0.0741,-0.0976,0.273
6.866000,-0.0277,0.0477,0.2469,0.253
6.870000,-0.0818,-0.0193,0.3574,0.367
6.877000,0.1485,0.1121,0.5858,0.615
6.881000,0.1065,0.0138,0.1745,0.205
6.886000,0.0169,0.0161,-0.2431,0.244
6.890000,-0.1634,0.0184,-0.1728,0.239
6.897000,-0.2338,-0.0009,-0.1551,0.281
6.900000,-0.0318,0.0444,-0.3024,0.307
6.904000,-0.0212,0.0299,-0.3542,0.356
6.910000,0.1233,0.1540,0.2989,0.358
6.915000,0.0504,-0.0136,0.1895,0.197
6.920000,-0.0343,-0.0902,-0.0554,0.111
6.926000,0.0843,-0.0065,0.3096,0.321
6.933000,0.1480,-0.0210,0.4310,0.456
6.934000,0.4510,0.0170,0.4386,0.629
6.940000,0.7186,-0.0382,0.6573,0.975
6.947000,0.7575,-0.1292,0.7359,1.064
6.950000,0.7137,-0.0863,0.8969,1.149
6.954000,0.4249,0.0449,0.8414,0.944
6.973000,0.0488,-0.0152,0.2113,0.217
6.973000,-0.2597,-0.0180,-0.0421,0.264
6.974000,-0.1068,0.0964,-0.0822,0.166
6.974000,-0.1692,0.0768,-0.2916,0.346
6.979000,-0.4469,-0.0001,-0.6063,0.753
6.983000,-0.5576,0.0378,-0.6536,0.860
6.987000,-0.5780,0.1259,-0.4821,0.763
6.995000,-0.2812,0.1971,-0.5215,0.624
6.998000,-0.1096,0.0938,-0.8766,0.888
7.002000,-0.1269,0.0792,-1.2208,1.230
7.008000,-0.2255,0.0287,-1.2944,1.314
7.014000,-0.0830,0.1266,-0.7627,0.778
7.017000,-0.1893,0.0738,-0.6626,0.693
7.021000,-0.2052,0.0306,-0.7334,0.762
7.027000,-0.2570,0.0617,-0.5498,0.610
7.031000,-0.4041,0.0473,-0.9976,1.077
7.037000,-0.3989,0.1237,-0.9610,1.048
7.042000,-0.4921,0.0902,-0.7182,0.875
7.047000,-0.3637,0.1332,-0.4309,0.579
7.051000,-0.3649,0.1165,-0.6367,0.743
7.056000,-0.2851,0.0519,-0.6879,0.746
7.067000,-0.3470,0.0735,-0.6206,0.715
7.068000,-0.2562,0.0474,-0.1309,0.292
7.076000,-0.0369,0.0308,-0.0457,0.066
7.077000,0.1370,0.0118,0.2498,0.285
7.091000,0.2583,0.0909,0.3206,0.422
7.092000,-0.0003,-0.1742,-0.1153,0.209
7.093000,0.0046,0.0915,-0.1276,0.157
7.095000,-0.2439,0.1107,-0.2022,0.336
7.101000,0.2297,0.4646,-0.1308,0.534
7.105000,1.4852,1.2290,0.2460,1.943
7.110000,0.2423,-0.7462,-0.4077,0.884
7.115000,-2.0704,-1.0723,-0.2479,2.345
7.120000,-0.4568,-0.0574,0.5306,0.702
7.125000,-0.0599,-0.0499,0.0234,0.081
7.130000,-0.2968,-0.0950,0.0192,0.312
7.134000,0.1067,0.0272,0.0963,0.146
7.140000,0.2664,0.0059,-0.1251,0.294
7.144000,0.6101,0.0683,-0.2819,0.676
7.149000,0.8562,0.1235,0.0726,0.868
7.154000,0.8523,0.0472,-0.0010,0.854
7.159000,-0.4079,-0.1390,0.7696,0.882
7.164000,-0.7634,-0.1984,0.7734,1.105
7.169000,-0.6266,-0.1741,0.5659,0.862
7.187000,0.1380,-0.0495,0.1396,0.202
7.190000,0.4646,0.0224,-0.2166,0.513
7.192000,0.1772,0.0344,-0.2570,0.314
7.193000,-0.2004,0.0321,-0.2521,0.324
7.193000,-0.0806,0.0346,0.1353,0.161
7.198000,-0.2190,-0.0371,0.0329,0.225
7.202000,-0.0587,-0.0131,-0.1673,0.178
7.209000,0.1565,0.0062,0.0295,0.159
7.213000,0.1830,-0.0010,0.0087,0.183
7.217000,0.0232,-0.0057,0.3012,0.302
7.223000,-0.0358,-0.0510,0.2188,0.228
7.227000,-0.1090,-0.0605,-0.0449,0.133
7.233000,-0.1320,-0.0007,0.0600,0.145
7.237000,0.0027,0.0017,-0.1793,0.179
7.242000,-0.3358,0.0089,-0.1866,0.384
7.247000,-0.0434,0.0567,0.0403,0.082
7.251000,0.0432,0.0160,-0.1845,0.190
7.257000,0.0795,0.0470,-0.1319,0.161
7.264000,0.0132,0.0303,-0.1034,0.109
7.267000,-0.1366,0.0398,-0.2972,0.330
7.290000,-0.2911,0.0326,-0.2449,0.382
7.292000,-0.3525,0.0565,-0.1712,0.396
7.292000,-0.3138,0.0469,-0.1980,0.374
7.293000,-0.1919,0.0397,-0.2488,0.317
7.294000,-0.1445,0.0325,-0.2257,0.270
7.297000,-0.1784,0.0110,-0.1718,0.248
7.300000,-0.1719,0.0326,-0.1397,0.224
7.308000,-0.2086,0.0327,-0.0933,0.231
7.310000,-0.2238,0.0160,-0.1618,0.277
7.315000,-0.2274,0.0304,-0.0940,0.248
7.321000,-0.1547,0.0256,-0.1746,0.235
7.325000,-0.1469,0.0281,-0.2551,0.296
7.330000,-0.1439,0.0354,-0.2999,0.334
7.340000,-0.0477,0.0617,-0.2804,0.291
7.342000,-0.0402,0.0427,-0.1773,0.187
7.345000,-0.0229,0.0165,-0.0769,0.082
7.349000,0.0279,0.0047,-0.0723,0.078
7.357000,0.1336,0.0168,-0.1013,0.168
7.358000,0.1229,0.0504,-0.0247,0.135
7.363000,0.0833,0.0218,0.0304,0.091
7.368000,0.1159,0.0242,0.1001,0.155
7.374000,0.0894,0.0243,0.0489,0.105
7.378000,0.1653,0.0554,0.0287,0.177
7.383000,0.1460,-0.0355,0.6614,0.678
7.388000,0.7626,0.0363,1.3610,1.561
7.392000,0.4403,-0.0164,-1.4925,1.556
7.397000,-0.5499,-0.0116,-0.7475,0.928
7.408000,-0.1916,-0.1311,2.4318,2.443
7.409000,1.3187,0.1819,0.1138,1.336
7.413000,-0.2072,0.0405,-1.7544,1.767
7.417000,-0.2803,-0.0241,0.6627,0.720
7.423000,0.3922,0.0331,0.1146,0.410
7.427000,-0.3838,-0.0579,-0.4036,0.560
7.432000,0.0955,0.1500,0.2757,0.328
7.437000,-0.0926,0.0182,-1.1127,1.117
7.442000,-0.3210,0.0372,0.1356,0.350
7.447000,-0.0044,0.0728,-0.2157,0.228
7.453000,-0.4486,0.1108,-1.2383,1.322
7.457000,-0.4028,-0.0901,0.9320,1.019
7.462000,0.7633,-0.0304,1.0309,1.283
7.466000,0.2726,-0.0879,-0.1259,0.313
7.475000,0.0938,0.0124,0.0546,0.109
7.476000,-0.0177,0.0265,0.1728,0.176
7.480000,-0.4445,-0.0789,-0.1816,0.487
7.485000,0.0058,-0.0671,0.3465,0.353
7.491000,0.3674,-0.0625,0.5687,0.680
7.497000,0.3705,-0.1870,0.3830,0.565
7.503000,0.2929,-0.0509,0.5303,0.608
7.505000,0.2277,0.0205,0.7428,0.777
7.510000,-0.0689,-0.0278,0.6026,0.607
7.514000,0.0555,-0.0068,0.4924,0.496
7.520000,0.1631,-0.0216,0.3448,0.382
7.524000,0.4262,0.0305,0.2577,0.499
7.529000,0.5486,0.0705,-0.0321,0.554
7.542000,0.4613,0.1224,0.0111,0.477
7.542000,0.2098,0.1672,-0.1487,0.307
7.544000,0.0473,0.0517,-0.2675,0.277
7.550000,-0.0552,0.0512,-0.3177,0.327
7.559000,0.0961,0.0076,-0.2864,0.302
7.560000,0.2310,0.1434,-0.1594,0.315
7.564000,0.0908,0.0807,-0.6235,0.635
7.569000,-0.0946,0.1304,-0.8512,0.866
7.574000,-0.1937,0.1658,-0.5540,0.610
7.581000,-0.0011,0.1271,-0.7167,0.728
7.584000,-0.0620,0.0980,-1.1837,1.189
7.588000,0.0657,0.1646,-0.7346,0.756
7.594000,-0.2841,0.1691,-0.4637,0.569
7.599000,-0.2632,0.1186,-0.4175,0.508
7.604000,-0.1496,0.1709,-0.5347,0.581
7.609000,-0.4500,0.0559,-0.9031,1.011
7.613000,-0.5711,0.0988,-0.7538,0.951
7.620000,-0.5638,0.1967,-0.4698,0.760
7.623000,-0.6289,0.0626,-0.8937,1.095
7.629000,-0.7089,0.0984,-0.9302,1.174
7.633000,-0.7538,0.0696,-0.9131,1.186
7.640000,-0.5676,0.0601,-0.8185,0.998
7.644000,-0.3345,0.1246,-0.7964,0.873
7.648000,-0.1616,0.1772,-0.6439,0.687
7.681000,-0.2544,0.1341,-0.9971,1.038
7.682000,0.7566,1.2812,0.2501,1.509
7.683000,2.1240,1.8247,1.1785,3.038
7.690000,-2.9364,-2.2115,-0.7999,3.762
7.690000,-1.5237,-0.6767,1.5829,2.299
7.691000,-0.0630,-0.1310,1.0519,1.062
7.691000,2.1183,2.3475,-0.3622,3.183
7.691000,-0.5267,-1.5914,-0.9345,1.919
7.692000,-2.1232,-0.9967,-1.7721,2.940
7.697000,-0.3062,0.0275,-0.8618,0.915
7.700000,-0.2771,0.0659,-0.3287,0.435
7.705000,-0.4586,-0.0846,0.0315,0.467
7.710000,-0.0405,-0.0030,-0.0390,0.056
7.714000,1.7208,1.7823,0.5547,2.539
7.721000,0.6087,-0.6860,0.0248,0.917
7.726000,-1.7400,-1.2179,-0.4488,2.171
7.729000,-0.1861,-0.0810,0.2460,0.319
7.736000,0.0989,0.0173,-0.1830,0.209
7.739000,-0.3045,-0.0303,-0.1957,0.363
7.744000,0.1266,0.0010,-0.1680,0.210
7.750000,0.3998,-0.0514,-0.1237,0.422
7.754000,0.1664,-0.0271,-0.0176,0.169
7.759000,0.0245,0.0161,0.0740,0.080
7.764000,0.0695,-0.0051,0.0486,0.085
7.769000,0.5355,0.4970,0.1930,0.756
7.774000,0.4575,0.1812,0.2635,0.558
7.778000,-0.7216,-0.7007,0.2175,1.029
7.784000,-0.6292,-0.1452,-0.0237,0.646
7.791000,-0.2509,0.0010,-0.1066,0.273
7.794000,-0.3178,-0.0347,-0.0552,0.324
7.799000,-0.0886,-0.0728,0.0107,0.115
7.803000,0.0352,-0.0940,0.1629,0.191
7.809000,-0.0608,-0.0317,0.3941,0.400
7.814000,-0.2190,-0.0794,0.5448,0.592
7.818000,-0.1714,-0.0314,0.4023,0.438
7.823000,0.0218,-0.0099,0.1342,0.136
7.827000,0.2006,-0.0099,-0.1044,0.226
7.833000,0.1286,-0.0266,0.1043,0.168
7.839000,0.1982,-0.0267,0.2365,0.310
7.843000,0.1963,-0.0697,0.2974,0.363
7.850000,0.4220,-0.0028,0.2322,0.482
7.856000,0.2655,-0.0674,0.3468,0.442
7.858000,0.0070,-0.1224,0.5479,0.561
7.863000,-0.1196,-0.0985,0.6303,0.649
7.872000,-0.0980,-0.0747,0.4508,0.467
7.873000,-0.0573,0.0208,0.1910,0.200
7.876000,-0.1529,0.0109,0.0707,0.169
7.886000,-0.1242,-0.0180,0.1684,0.210
7.887000,-0.3371,-0.0350,0.3645,0.498
7.891000,-0.6242,-0.0329,0.4705,0.782
7.896000,-0.9165,-0.0404,0.3909,0.997
7.901000,-1.0232,-0.0169,-0.0867,1.027
7.906000,-0.9398,-0.0531,-0.3170,0.993
7.910000,-0.7670,-0.0463,-0.0762,0.772
7.915000,-0.8010,-0.0276,0.0785,0.805
7.920000,-0.7357,-0.0710,0.0735,0.743
7.924000,-0.8651,-0.0379,0.2028,0.889
7.930000,-1.0291,-0.0049,0.2515,1.059
7.935000,-1.3689,-0.0675,0.2748,1.398
7.940000,-1.6076,-0.0871,0.1962,1.622
7.944000,-1.7578,-0.1497,0.0302,1.764
7.949000,-2.0063,-0.0759,-0.0585,2.009
7.954000,-1.5169,-0.1122,-0.0675,1.523
7.959000,-0.7246,0.0883,-0.1454,0.744
7.964000,-0.4436,-0.0102,-0.0800,0.451
7.969000,-1.3710,-0.0009,0.3824,1.423
7.974000,-1.8073,-0.0871,0.4869,1.874
7.978000,-1.8278,0.0802,0.4299,1.879
7.985000,-1.9658,0.3358,-0.0108,1.994
7.988000,-2.3530,0.1564,-0.3999,2.392
7.993000,-1.7517,0.2045,-0.4514,1.820
8.007000,-1.6123,0.2384,-0.5031,1.706
8.008000,-1.5349,0.0790,-0.1200,1.542
8.009000,-1.7393,-0.1611,0.0454,1.747
8.014000,-1.5919,0.2446,0.5722,1.709
8.021000,-1.7258,-0.0548,0.4969,1.797
8.023000,-1.4458,-0.0284,0.3132,1.480
8.028000,-1.3397,-0.1427,0.8471,1.591
8.032000,-0.7844,-0.0675,0.9854,1.261
8.038000,-0.8062,-0.2310,1.6530,1.854
8.042000,-0.9780,-0.0592,1.7529,2.008
8.047000,-0.6192,0.0912,1.8622,1.965
8.052000,-0.7146,0.2658,1.7153,1.877
8.057000,-1.2392,0.5721,1.3655,1.931
8.062000,-1.5640,0.3383,1.5219,2.208
8.067000,-1.8072,0.3945,1.7329,2.535
8.071000,-1.7117,0.4106,1.3246,2.203
8.077000,-1.5263,0.5134,1.3180,2.081
8.082000,-1.1957,0.3490,1.0549,1.632
8.087000,-0.9187,0.2692,0.9759,1.367
8.091000,-1.0339,0.3933,1.2263,1.652
8.097000,-1.2472,0.5874,1.3853,1.954
8.101000,-1.7116,0.5645,1.4051,2.285
8.106000,-1.7846,0.2176,1.6610,2.448
8.112000,-1.2712,0.9237,2.1886,2.694
8.116000,-0.7397,1.3264,3.3216,3.652
8.121000,0.3372,1.2919,4.3398,4.541
8.126000,1.2401,2.1060,5.8727,6.361
8.131000,1.9916,2.9597,5.6510,6.683
8.135000,2.0092,3.5582,4.4656,6.053
8.140000,1.0228,3.4617,4.2471,5.574
8.155000,-1.7667,4.0614,5.5749,7.120
8.157000,-5.8379,4.4224,1.4772,7.471
8.158000,-4.8718,9.2884,-13.2605,16.907
8.174000,-5.5168,11.2795,-19.8394,23.479
8.176000,-1.9406,11.9470,-15.0377,19.304
8.178000,3.8797,10.3575,-5.9439,12.556
8.179000,4.7951,6.6849,4.6760,9.463
8.184000,3.4127,3.7262,10.2761,11.451
8.185000,1.9229,2.9745,10.5455,11.124
8.188000,0.6810,3.3166,7.9052,8.600
8.193000,0.1528,3.6637,5.3287,6.468
8.198000,0.6415,3.6451,4.1987,5.597
8.203000,1.8404,3.2277,4.5468,5.872
8.208000,3.5186,2.9331,5.3057,7.010
8.218000,5.1796,2.7258,5.6360,8.125
8.221000,6.3441,2.6514,5.3969,8.741
8.224000,6.7020,2.5859,4.9075,8.700
8.228000,6.1734,2.0656,4.8900,8.142
8.233000,7.1993,1.2635,4.7420,8.713
8.238000,6.7909,0.7342,4.8608,8.383
8.263000,6.7512,0.0616,5.3162,8.593
8.267000,7.3357,-0.6539,5.4807,9.180
8.268000,8.3833,-1.1446,5.5353,10.111
8.270000,8.9087,-1.7982,5.4498,10.597
8.271000,9.1024,-1.8978,5.2753,10.690
8.272000,10.0382,-2.3958,5.4948,11.692
8.275000,11.0469,-2.5247,4.8685,12.333
8.278000,11.8638,-2.8062,4.2910,12.924
8.283000,12.1791,-3.1136,3.6639,13.094
8.287000,12.2893,-3.6001,3.3313,13.232
8.291000,12.7829,-4.1007,3.0977,13.777
8.296000,12.1576,-4.3739,2.5563,13.171
8.301000,11.6178,-4.6595,2.2840,12.724
8.306000,10.5866,-5.1748,1.7979,11.920
8.314000,9.8517,-5.3275,1.3612,11.282
8.315000,10.1892,-5.6963,0.8969,11.708
8.321000,9.1759,-5.3798,0.0555,10.637
8.326000,8.4988,-5.0795,-0.2504,9.904
8.330000,8.4868,-4.8167,-0.5500,9.774
8.335000,8.0512,-4.4887,-0.6501,9.241
8.341000,9.2294,-4.2816,-0.7637,10.203
8.346000,10.0686,-3.6498,-0.9675,10.753
8.350000,9.7033,-3.0452,-1.1541,10.235
8.356000,9.4591,-2.6324,-1.2426,9.897
8.360000,9.3700,-2.3251,-1.0278,9.709
8.364000,9.0889,-2.2663,-0.8972,9.410
8.370000,8.7098,-2.3791,-0.7403,9.059
8.375000,7.1092,-2.1756,-0.9849,7.500
8.379000,6.3608,-2.2441,-0.4355,6.759
8.384000,8.8294,-2.1013,-0.8945,9.120
8.389000,9.8560,-2.0695,-1.1200,10.133
8.394000,8.5677,-1.8497,-1.3917,8.875
8.399000,6.3868,-1.5808,-1.3659,6.720
8.403000,6.4383,-1.6068,-0.7769,6.681
8.408000,7.1390,-1.4133,-0.8456,7.327
8.413000,7.4027,-1.1797,-0.7010,7.529
8.418000,7.1025,-0.9896,-0.6707,7.202
8.425000,5.4296,-0.6255,-0.7214,5.513
8.427000,4.1976,-0.5989,-0.2507,4.248
8.432000,3.9146,-0.5001,-0.0510,3.947
8.438000,4.2474,-0.3006,0.0417,4.258
8.443000,3.2811,0.1044,0.0322,3.283
8.448000,2.2057,0.5668,0.3494,2.304
8.451000,2.0541,0.9122,0.8834,2.415
8.463000,2.2005,1.4800,1.2349,2.925
8.464000,2.0992,1.8967,1.5494,3.226
8.468000,1.3154,2.5323,1.4440,3.198
8.472000,0.5591,2.9947,1.6732,3.476
8.478000,-0.0330,3.4201,1.5737,3.765
8.481000,-1.5368,3.9518,1.2642,4.425
8.486000,-2.6563,3.8640,1.5852,4.950
8.492000,-0.5859,3.8885,1.6627,4.269
8.496000,-0.7695,4.2063,1.0737,4.409
8.503000,-3.0538,4.3292,0.9588,5.384
8.505000,-4.5505,4.4709,0.7149,6.419
8.511000,-6.1499,4.2284,0.6680,7.493
8.517000,-4.1657,3.9872,0.4554,5.784
8.521000,-3.4765,3.8707,-0.1227,5.204
8.526000,-5.6146,4.1066,-0.8188,7.004
8.530000,-8.1619,4.2512,-1.4193,9.311
8.536000,-8.8571,3.8713,-1.3135,9.755
8.541000,-7.4729,3.4741,-1.4667,8.370
8.545000,-7.1389,3.0543,-1.5813,7.924
8.549000,-9.1651,3.0509,-1.7761,9.822
8.554000,-9.7646,2.9584,-1.7443,10.351
8.560000,-9.6928,2.9396,-1.8854,10.303
8.564000,-9.7961,2.9632,-1.9367,10.416
8.569000,-9.8168,3.0316,-1.9011,10.449
8.580000,-9.7182,3.0941,-1.7882,10.354
8.587000,-9.6108,3.1605,-1.7375,10.265
8.592000,-9.6310,3.1615,-1.6810,10.275
8.593000,-9.6972,3.1331,-1.5806,10.313
8.601000,-9.7358,3.0611,-1.4986,10.315
8.603000,-9.6893,2.8883,-1.4350,10.212
8.604000,-9.6254,2.6724,-1.4519,10.094
8.609000,-9.5179,2.4160,-1.5802,9.946
8.613000,-9.5129,2.0763,-1.7386,9.891
8.619000,-9.5629,1.6800,-1.8983,9.893
8.624000,-9.5059,1.3828,-1.9853,9.809
8.627000,-9.2853,1.2638,-1.9738,9.577
8.633000,-9.0190,1.2251,-1.9563,9.310
8.639000,-8.7233,1.2832,-2.0279,9.047
8.643000,-8.5095,1.3503,-2.0990,8.868
8.647000,-8.3396,1.4144,-1.9592,8.683
8.652000,-8.2207,1.4160,-1.6639,8.506
8.657000,-8.1389,1.3242,-1.2874,8.346
8.662000,-8.0154,1.3328,-1.0711,8.196
8.666000,-8.0390,1.3701,-0.8307,8.197
8.671000,-8.0375,1.4121,-0.7911,8.199
8.676000,-8.1208,1.4731,-0.7107,8.284
8.681000,-8.2335,1.6248,-0.6998,8.421
8.686000,-8.3733,1.8074,-0.6200,8.589
8.691000,-8.2391,2.1283,-0.4837,8.523
8.696000,-8.5836,1.8848,-0.5755,8.807
8.700000,26.4065,29.9300,1.6018,39.946
8.706000,3.9070,11.0722,-1.7126,11.866
8.711000,-12.8852,-14.2342,-3.1785,19.461
8.716000,-7.2508,-0.9514,-2.2732,7.658
8.722000,-1.1828,6.9139,-1.1056,7.101
8.726000,2.4035,3.7573,-0.4199,4.480
8.731000,2.3326,0.2788,3.0303,3.834
8.735000,2.3810,2.2368,1.7372,3.700
8.740000,1.1428,3.6698,-2.8208,4.768
8.747000,-1.6122,2.5881,-6.2039,6.913
8.750000,-3.8695,2.5301,-7.2299,8.582
8.757000,-5.3097,2.3100,-5.5504,8.021
8.762000,-5.1626,1.0918,-2.8611,6.003
8.766000,-4.6351,1.4767,-2.0374,5.274
8.770000,-4.9766,1.1631,-3.0732,5.964
8.775000,-3.8577,1.0264,-4.0441,5.682
8.784000,-1.9811,0.4658,-4.1418,4.615
8.786000,-0.6312,0.1390,-2.2061,2.299
8.789000,-1.2084,-1.4150,0.2772,1.881
8.794000,-5.6227,-3.1500,6.1219,8.889
8.799000,-12.3837,-2.1547,14.4088,19.121
8.804000,-13.1475,-1.1400,15.9963,20.737
8.809000,-2.7635,-0.5938,2.0759,3.507
8.814000,3.8231,1.1494,-5.6657,6.931
8.848000,0.1856,1.4184,-2.8182,3.160
8.849000,-5.2569,0.6452,-0.5808,5.328
8.849000,-6.1385,0.4973,-2.3125,6.578
8.850000,-4.3502,0.3929,-2.9356,5.263
8.850000,-1.2224,0.4419,-0.1773,1.312
8.850000,1.4076,0.2256,1.7171,2.232
8.851000,1.8896,0.3084,3.2623,3.783
8.852000,0.1745,0.4580,2.1927,2.247
8.859000,-1.3067,0.4283,-0.2009,1.390
8.863000,-1.4810,0.4107,-2.2381,2.715
8.868000,-1.2295,0.3191,-2.9010,3.167
8.872000,-1.2502,0.2157,-2.7421,3.021
8.877000,-1.4635,-0.1193,-1.5566,2.140
8.882000,-5.0280,-0.3869,0.0482,5.043
8.887000,-3.0716,-0.4414,0.6562,3.172
8.893000,1.8431,0.4433,0.1950,1.906
8.897000,1.0057,0.4045,0.5028,1.195
8.902000,-0.4176,0.2152,0.3431,0.582
8.906000,0.1935,0.2890,0.2321,0.418
8.912000,0.4645,0.3436,0.0427,0.579
8.917000,0.4294,0.3958,-0.1771,0.610
8.922000,0.5571,0.4072,-0.2748,0.743
8.927000,0.8403,0.8010,0.0768,1.163
8.931000,1.3680,1.1274,0.6339,1.883
8.937000,0.9388,0.4712,0.8545,1.354
8.941000,0.3343,0.2293,0.7440,0.847
8.946000,0.5317,0.3102,0.6800,0.917
8.954000,0.2802,-0.0438,0.4398,0.523
8.960000,0.0052,-0.0414,0.2862,0.289
8.969000,-0.0020,-0.0867,0.0802,0.118
8.971000,0.1097,-0.0865,0.0323,0.143
8.977000,0.3956,0.0068,0.0441,0.398
8.978000,0.6907,0.1455,0.3857,0.804
8.989000,0.8356,0.2625,0.5719,1.046
8.990000,0.8805,0.3411,0.4739,1.056
8.990000,0.5246,-0.1204,0.6586,0.851
8.994000,0.1286,-0.4906,0.8890,1.024
8.998000,-0.4087,-0.9535,1.0865,1.502
9.003000,-1.3487,-1.5855,0.8422,2.245
9.008000,-1.0961,-0.9310,0.3733,1.486
9.015000,1.4151,0.5447,0.5664,1.619
9.018000,1.9554,0.3075,0.5066,2.043
9.025000,0.7386,-0.0990,-0.1282,0.756
9.029000,0.1023,-0.2159,-0.5666,0.615
9.033000,0.2579,0.0116,-0.6420,0.692
9.040000,0.4518,0.0643,-0.7324,0.863
9.043000,0.4165,0.0309,-0.8446,0.942
9.047000,0.3244,-0.0717,-0.6587,0.738
9.055000,0.5194,-0.0332,-0.2752,0.589
9.062000,0.4806,-0.1309,0.0671,0.503
9.063000,0.4949,-0.1258,0.0721,0.516
9.070000,0.5505,-0.1134,-0.2263,0.606
9.072000,0.6615,-0.0723,-0.3525,0.753
9.078000,0.7685,-0.0982,0.0229,0.775
9.082000,0.7688,-0.1432,0.7825,1.106
9.087000,1.1046,-0.0087,1.4055,1.788
9.092000,1.5534,-0.0322,2.1630,2.663
9.097000,1.6378,0.1835,2.0448,2.626
9.101000,1.4635,0.1194,1.6399,2.201
9.106000,1.1286,0.3471,1.8442,2.190
9.110000,1.0152,0.3523,1.6253,1.948
9.118000,1.2307,0.3051,1.4237,1.907
9.126000,1.2249,0.4374,2.1491,2.512
9.128000,1.6888,0.8755,2.5873,3.211
9.131000,2.2856,1.6575,1.7400,3.316
9.138000,2.0594,0.1064,1.5278,2.566
9.145000,2.7320,1.7407,1.3232,3.499
9.148000,2.2552,2.0973,1.7883,3.561
9.153000,3.0249,2.7957,1.8784,4.527
9.158000,4.9160,3.8332,1.2379,6.356
9.160000,4.7652,5.5679,0.5022,7.346
9.167000,5.5040,5.2174,0.0820,7.584
9.171000,7.5793,4.8876,-1.2350,9.103
9.175000,6.5702,6.7033,-2.1069,9.620
9.180000,6.9866,8.3031,-4.1960,11.634
9.185000,6.7155,7.8544,-5.4220,11.670
9.191000,5.8114,8.9349,-7.1792,12.851
9.193000,7.6522,10.0322,-6.9845,14.422
9.204000,9.3481,9.9040,-7.2348,15.421
9.205000,9.3217,10.3832,-6.5994,15.436
9.209000,10.0064,12.4018,-6.9129,17.370
9.224000,9.6045,13.3439,-9.5547,19.016
9.226000,12.3460,12.3148,-8.3313,19.326
9.226000,13.5787,13.3068,-6.7186,20.164
9.229000,15.3694,13.1138,-6.9026,21.350
9.234000,18.4637,13.8725,-6.7780,24.069
9.239000,17.7295,13.9775,-6.0007,23.361
9.244000,19.2947,12.8046,-4.7370,23.636
9.248000,21.2097,11.8804,-2.2955,24.419
9.254000,24.5646,11.8094,-1.8959,27.322
9.259000,25.7493,11.8753,-1.6561,28.404
9.263000,26.0428,11.1132,-0.0328,28.315
9.268000,25.8578,9.7559,2.8392,27.782
9.273000,27.1204,9.4653,4.0890,29.014
9.278000,27.4889,11.8483,2.6925,30.055
9.283000,23.6574,10.9791,2.1290,26.168
9.293000,19.9892,13.8508,3.0662,24.512
9.296000,16.5575,16.9613,-0.4931,23.708
9.299000,14.3901,18.2245,1.5943,23.276
9.304000,9.8813,19.8173,-5.1442,22.734
9.309000,7.0919,20.5518,-2.5200,21.887
9.314000,10.1442,20.9290,0.9870,23.279
9.317000,12.8301,17.1402,3.0741,21.630
9.322000,9.9555,16.6497,2.1348,19.516
9.326000,6.9411,16.7692,-0.4358,18.154
9.331000,9.3421,15.6542,0.8789,18.251
9.336000,12.5190,13.4361,-2.0309,18.476
9.341000,16.6628,9.9778,-3.2149,19.686
9.353000,26.0493,1.1048,-5.6993,26.688
9.362000,23.3109,3.5170,0.7974,23.588
9.363000,-10.8949,-4.8727,4.9836,12.934
9.364000,-22.1502,-4.5071,-7.2760,23.746
9.366000,-0.9036,2.7891,4.2055,5.127
9.376000,13.3044,7.6120,8.8551,17.702
9.377000,16.8828,7.1009,5.8911,19.239
9.382000,16.0509,5.5584,2.6485,17.191
9.386000,14.9062,5.3909,0.7142,15.867
9.390000,15.8623,5.9645,0.1156,16.947
9.395000,16.1379,6.6562,-0.7439,17.473
9.399000,15.6986,6.8372,-1.2528,17.169
9.404000,16.4219,7.4422,-0.8887,18.051
9.408000,17.0502,6.8963,-1.0190,18.420
9.414000,17.4697,5.7631,0.2087,18.397
9.418000,16.6693,3.6767,0.4976,17.077
9.423000,15.3943,2.3774,1.0120,15.610
9.429000,13.6234,1.4243,1.6083,13.792
9.433000,11.7337,0.6390,1.6107,11.861
9.437000,10.2355,-0.1307,0.8745,10.274
9.443000,9.2938,-0.7689,-0.1937,9.328
9.449000,10.0326,-0.3843,-0.6029,10.058
9.453000,6.4331,-1.2458,-2.1930,6.910
9.457000,4.3109,-1.9006,-1.8080,5.046
9.473000,8.4129,-1.6110,-1.5001,8.696
9.474000,10.0025,-1.0385,-1.7177,10.202
9.474000,9.4430,-0.9164,-1.7669,9.650
9.495000,8.7803,-0.8825,-0.7591,8.857
9.496000,8.5883,-0.7493,0.2712,8.625
9.496000,8.3314,-0.4158,0.6899,8.370
9.496000,7.9644,-0.0295,0.6868,7.994
9.496000,7.3724,0.2524,0.6157,7.402
9.501000,6.3068,0.3944,0.6740,6.355
9.506000,5.2139,0.5164,1.4468,5.436
9.511000,4.6933,0.7790,2.3820,5.320
9.516000,4.2948,1.0109,3.0720,5.376
9.521000,3.9323,1.1877,3.7493,5.562
9.525000,3.8291,1.4805,4.0280,5.751
9.531000,4.0778,1.9343,3.8078,5.905
9.535000,4.4161,2.3948,2.9089,5.805
9.540000,4.8119,2.6745,2.8357,6.193
9.545000,5.1043,2.7605,3.2640,6.658
9.550000,4.9874,2.7900,3.4284,6.664
9.555000,4.7328,2.6632,3.2624,6.335
9.560000,3.5387,2.3448,2.2781,4.818
9.565000,1.8724,1.9089,1.3967,3.017
9.569000,0.2844,1.4490,1.4339,2.058
9.574000,-1.4333,0.7262,1.1837,1.996
9.580000,-2.8334,0.2880,0.4741,2.887
9.584000,-3.9347,0.4042,0.1747,3.959
9.589000,-5.1606,1.0908,0.3332,5.285
9.594000,-6.6116,2.2250,0.0331,6.976
9.599000,-8.3159,3.5642,-0.3717,9.055
9.603000,-9.9739,5.0594,-0.4197,11.192
9.609000,-11.9686,6.3770,-0.5371,13.572
9.614000,-14.3546,7.4654,-0.8527,16.202
9.618000,-16.5587,8.5106,-1.1933,18.656
9.624000,-18.0839,9.7599,-1.4668,20.602
9.628000,-19.0763,11.1069,-1.8393,22.151
9.634000,-20.0729,12.2106,-1.5597,23.547
9.641000,-20.9533,13.2442,-0.5113,24.793
9.643000,-21.7072,14.1585,0.8776,25.931
9.648000,-21.4490,15.0664,3.4438,26.437
9.653000,-23.7462,15.4423,3.1486,28.500
9.658000,-25.3593,16.3643,4.5021,30.515
9.664000,-25.5436,17.2188,5.0198,31.212
9.668000,-26.9203,17.4372,5.3447,32.517
9.672000,-29.5158,16.8564,5.8329,34.487
9.681000,-31.3676,16.0050,6.0697,35.734
9.683000,-31.8363,15.7573,5.5193,35.949
9.688000,-31.9948,15.7300,3.7557,35.850
9.694000,-31.8523,15.5083,2.4282,35.510
9.697000,-31.4781,14.7381,1.5500,34.792
9.702000,-30.9921,13.7187,0.6678,33.899
9.706000,-30.3066,12.6037,0.2325,32.824
9.711000,-29.4711,11.3345,-0.0749,31.576
9.717000,-28.5897,10.0004,-0.4511,30.292
9.721000,-27.6240,8.5648,-0.5498,28.927
9.736000,-26.3796,7.1796,-0.3194,27.341
9.738000,-24.8701,5.9915,-0.3718,25.584
9.740000,-23.3316,4.7505,-0.5361,23.816
9.752000,-21.5043,3.6463,-0.3963,21.815
9.755000,-19.3976,2.5363,-0.6406,19.573
9.756000,-17.5472,1.2968,-0.7971,17.613
9.758000,-15.6766,0.0097,-0.7413,15.694
9.762000,-13.7625,-1.1283,-0.6612,13.825
9.765000,-11.8677,-2.1578,-0.5018,12.073
9.771000,-9.5648,-2.8370,-0.3228,9.982
9.776000,-7.0524,-3.2000,-0.3710,7.753
9.782000,-4.7820,-3.7513,-0.4172,6.092
9.785000,-3.0229,-4.6151,-0.1081,5.518
9.790000,-1.8009,-5.7285,0.5411,6.029
9.796000,-0.8712,-7.1191,1.0089,7.243
9.800000,-0.3458,-8.6167,1.2016,8.707
9.805000,0.2959,-10.0361,1.1795,10.109
9.813000,1.3431,-11.2979,0.7273,11.401
9.815000,1.9189,-13.2480,0.1304,13.387
9.819000,16.0077,-1.6755,16.5924,23.116
9.825000,36.9827,29.8200,35.7410,59.451
9.829000,-9.0150,27.8395,-17.6768,34.187
9.835000,-40.8295,29.6308,38.9710,63.748
9.838000,-40.5224,29.5525,39.0153,63.542
9.848000,-40.3455,-4.9649,-27.2402,48.933
9.850000,21.6467,-26.4358,-38.8127,51.709
9.853000,38.0169,13.4912,-38.7675,55.948
9.878000,2.8872,8.2852,29.1456,30.438
9.879000,-40.1650,-2.5463,39.4314,56.343
9.879000,-27.5419,-11.7112,28.7503,41.500
9.880000,15.7345,3.0317,-38.8512,42.026
9.881000,9.1654,2.7614,-38.7731,39.937
9.883000,-17.8478,1.3074,-6.0016,18.875
9.887000,-12.4406,1.8481,6.0221,13.945
9.892000,7.1461,2.9348,1.7224,7.915
9.896000,10.0707,1.1759,3.4771,10.719
9.901000,5.6622,1.0554,9.4132,11.036
9.906000,2.2064,2.0080,10.0875,10.519
9.911000,-0.2837,0.2591,1.2201,1.279
9.917000,-0.5731,1.7867,-7.1905,7.431
9.921000,-0.3035,2.2105,-5.8390,6.251
9.926000,-0.0908,2.1222,0.0304,2.124
9.931000,2.3869,2.5695,1.5043,3.816
9.936000,2.7728,2.8707,1.8938,4.418
9.941000,1.0759,2.6697,4.3708,5.233
9.946000,1.8292,3.5162,3.7699,5.470
9.951000,3.9410,5.4829,2.9823,7.382
9.955000,7.2898,8.3582,2.3533,11.337
9.960000,11.8648,12.5756,2.3219,17.444
9.965000,14.5281,17.0963,-1.1659,22.466
9.969000,18.9321,23.4561,-10.2242,31.830
9.977000,23.3287,29.3218,-19.4586,42.221
9.980000,28.1084,29.3102,-21.0843,45.757
9.984000,30.0534,29.2707,-17.9484,45.630
9.992000,29.5164,26.0889,-16.5785,42.740
9.997000,31.9324,23.7140,-15.2984,42.615
10.000000,35.6609,22.3635,-12.9129,44.029
10.011000,38.5777,18.9512,-15.6112,45.729
10.012000,40.3467,15.4109,-12.8020,45.047
10.016000,40.3689,11.9715,-4.4411,42.340
10.019000,33.1038,6.8585,2.1325,33.874
10.024000,24.3707,3.7663,8.2509,26.004
10.029000,15.3248,1.0064,12.0800,19.539
10.034000,6.6953,0.4475,11.7192,13.504
10.038000,0.9127,5.3975,3.1934,6.338
10.044000,-3.6549,8.9737,-0.0943,9.690
10.049000,-3.6818,9.2771,0.2065,9.983
10.053000,-0.9808,6.8005,0.0798,6.871
10.061000,-0.6412,2.8070,-0.2908,2.894
10.063000,-2.2508,0.7981,0.0197,2.388
10.068000,-2.2435,0.0849,-0.1028,2.247
10.073000,7.1628,1.2843,-2.3071,7.634
10.078000,19.4383,-0.0892,-3.9617,19.838
10.082000,25.0355,-2.6399,-5.4559,25.759
10.087000,22.8750,-1.8596,-7.9986,24.304
10.092000,7.2637,-1.5223,-2.8484,7.949
10.097000,-8.8269,-6.2050,-11.3760,15.679
10.102000,3.3877,-1.6791,-6.3508,7.391
10.108000,14.3823,0.0421,-0.5110,14.391
10.112000,20.1192,1.5093,0.5534,20.183
10.116000,24.1278,2.3714,1.1973,24.274
10.123000,26.3895,3.8734,0.4329,26.676
10.129000,26.2260,4.3585,-1.2340,26.614
10.132000,24.6667,3.6598,-2.4582,25.058
10.141000,23.3274,2.7332,-2.9171,23.667
10.141000,22.3770,1.9207,-3.2739,22.697
10.145000,21.4700,1.1135,-3.2694,21.746
10.151000,20.4503,0.5213,-2.5684,20.618
10.155000,18.7944,0.1412,-2.2973,18.935
10.161000,17.2571,-0.3009,-1.7304,17.346
10.165000,15.9811,-0.5568,-1.4211,16.054
10.170000,14.1967,-0.4379,-1.9082,14.331
10.175000,12.4851,-0.4512,-1.5088,12.584
10.180000,11.3738,0.3179,-1.2145,11.443
10.184000,10.8717,1.2521,-1.0331,10.992
10.189000,10.7376,2.4477,-1.1086,11.069
10.194000,11.3565,3.6279,-0.5877,11.936
10.199000,11.9022,4.7466,-0.3456,12.818
10.204000,11.9146,5.7046,0.5789,13.222
10.209000,12.3664,6.5590,1.6770,14.098
10.214000,13.2496,7.3315,2.1386,15.293
10.219000,14.1990,8.2907,1.3493,16.498
10.224000,15.2132,9.3569,0.1936,17.861
10.228000,14.7952,9.6064,-1.1171,17.676
10.235000,13.8311,8.9351,-0.8357,16.487
10.238000,11.8358,7.5970,0.2374,14.066
10.243000,9.1828,6.4715,2.8416,11.588
10.249000,6.5800,5.7354,5.7099,10.430
10.253000,1.1753,5.1299,6.9418,8.711
10.258000,-0.4179,5.1245,8.1519,9.638
10.266000,4.5950,5.6009,7.1092,10.150
10.273000,3.4873,6.5172,5.9449,9.486
10.280000,1.0936,7.1489,5.4021,9.027
10.280000,1.0789,7.9128,5.3873,9.633
10.282000,2.2166,8.6373,5.2416,10.344
10.288000,2.9239,9.1277,4.8134,10.725
10.292000,3.7137,9.6295,5.2775,11.592
10.297000,4.4821,10.0534,6.3223,12.694
10.302000,4.7886,10.4350,6.9492,13.421
10.306000,4.5159,10.3292,6.3731,12.950
10.311000,3.3716,9.4433,5.7634,11.565
10.317000,1.7817,8.0338,6.5796,10.536
10.321000,0.6054,6.6990,8.1151,10.540
10.326000,-0.2003,5.4364,8.0294,9.699
10.331000,-0.8831,4.5687,8.1071,9.348
10.336000,-1.5776,4.3997,9.6724,10.743
10.341000,-0.7791,4.8228,11.0597,12.091
10.345000,-1.9015,5.4820,11.3084,12.710
10.350000,-1.5632,5.9865,11.8175,13.339
10.355000,-0.9699,6.4793,12.0490,13.715
10.360000,-0.3420,6.7367,11.1594,13.040
10.365000,0.2728,6.6447,9.5443,11.633
10.373000,0.5200,6.1147,8.2044,10.246
10.375000,0.4563,5.0799,7.3631,8.957
10.379000,-0.0410,3.5787,7.2238,8.062
10.385000,-0.9323,1.8433,7.3601,7.644
10.390000,-2.0615,-0.0856,6.9646,7.264
10.394000,-3.3180,-2.1363,6.4185,7.535
10.410000,-4.5756,-4.2036,6.3077,8.854
10.411000,-5.1235,-5.7523,6.3677,9.994
10.414000,-5.0210,-6.3669,5.7726,9.953
10.415000,-5.1743,-6.4285,4.7891,9.541
10.423000,-6.3559,-6.3539,4.2956,9.961
10.424000,-8.4493,-6.3797,4.6068,11.546
10.430000,-10.6223,-6.4050,5.2734,13.478
10.433000,-12.6317,-6.3434,5.3227,15.104
10.439000,-13.6785,-5.9915,4.4121,15.571
10.444000,-14.2615,-5.5651,2.8610,15.574
10.451000,-14.8303,-5.2394,1.2836,15.781
10.453000,-15.3508,-4.8910,0.5300,16.120
10.458000,-15.9031,-4.4176,0.1609,16.506
10.463000,-16.6099,-3.7078,-0.2830,17.021
10.468000,-17.0486,-2.5788,0.2528,17.244
10.473000,-17.4568,-1.0798,0.7245,17.505
10.477000,-18.2058,0.6565,1.3705,18.269
10.482000,-19.3224,2.5665,2.7059,19.679
10.488000,-20.6691,4.6445,4.0643,21.571
10.493000,-21.8444,7.0690,5.7259,23.663
10.503000,-22.9223,9.6834,6.0753,25.615
10.508000,-24.3268,12.2157,4.5816,27.604
10.513000,-25.7291,14.5613,3.7123,29.796
10.515000,-26.6374,16.7660,3.2747,31.644
10.518000,-27.1863,18.6652,3.0265,33.116
10.529000,-26.3653,19.8858,3.6141,33.221
10.533000,-29.5121,20.7871,1.2608,36.120
10.534000,-31.4478,20.5144,1.7903,37.590
10.536000,-31.9415,20.0185,3.2348,37.835
10.541000,-31.8584,19.1062,4.3141,37.398
10.546000,-31.3647,18.0056,5.2674,36.547
10.567000,-30.5788,16.3755,5.7223,35.156
10.569000,-29.1939,14.8291,5.5936,33.219
10.571000,-27.8070,13.3141,5.3975,31.299
10.572000,-26.7151,11.7524,4.6354,29.552
10.573000,-25.3165,9.9108,3.5393,27.417
10.576000,-23.3528,7.7978,2.4315,24.740
10.582000,-21.2159,5.1637,1.8979,21.918
10.587000,-19.1418,1.8885,2.1130,19.350
10.591000,-17.2051,-1.8528,2.9930,17.561
10.597000,-14.9327,-5.5576,3.8295,16.387
10.600000,-12.4988,-9.3377,4.7080,16.297
10.605000,-10.1992,-12.9295,4.5314,17.080
10.611000,-9.0495,-16.2924,4.1679,19.097
10.614000,-9.2796,-19.4358,4.9150,22.091
10.620000,-7.4896,-21.2303,4.3170,22.923
10.625000,36.2191,30.3862,-37.3898,60.276
10.630000,36.3366,30.2846,-2.5995,47.374
10.634000,12.7114,8.6844,-37.4955,40.533
10.639000,-41.4771,-31.0950,-25.4373,57.743
10.645000,-41.1979,28.3280,40.5752,64.390
10.650000,-38.7137,29.8935,40.3678,63.419
10.653000,37.3148,-39.4726,-12.4906,55.736
10.658000,37.3492,-3.1461,-37.9336,53.327
10.668000,-26.4012,20.3475,40.4444,52.410
10.668000,-40.5713,4.4600,0.6130,40.820
10.674000,3.2144,-6.8418,-37.9381,38.684
10.678000,19.6955,-0.3575,-7.8124,21.191
10.686000,-9.9079,1.2301,9.2545,13.613
10.687000,-21.7576,-5.2445,-18.0131,28.729
10.692000,-15.7240,-4.9563,-0.2593,16.489
10.699000,-3.1010,-2.6596,16.2584,16.764
10.702000,6.5578,0.1767,4.1421,7.758
10.706000,5.3631,4.3375,-1.5307,7.065
10.712000,0.3383,1.9482,3.7426,4.233
10.716000,-4.5649,-2.2022,11.1882,12.283
10.722000,-13.1449,-5.7902,9.4916,17.216
10.726000,-15.5239,-7.0295,-0.0252,17.041
10.732000,0.3632,2.3152,-0.5441,2.406
10.736000,11.1766,8.2958,4.3922,14.595
10.741000,9.5167,8.0837,1.9708,12.641
10.747000,3.3274,6.5642,1.7018,7.554
10.751000,8.9755,11.8950,-1.9392,15.027
10.755000,20.3286,26.5213,-9.7930,34.821
10.760000,19.4609,24.5835,-15.1146,34.807
10.765000,17.9287,29.6703,-27.9016,44.500
10.770000,18.9067,29.6428,-20.8018,40.852
10.776000,20.9322,29.6153,-16.2536,39.742
10.781000,21.9669,27.9677,-12.3525,37.647
10.785000,22.8506,27.5879,-10.2708,37.266
10.792000,23.8771,24.9683,-7.5416,35.361
10.796000,25.6903,17.4133,-3.7374,31.260
10.800000,39.6392,10.6607,-0.7635,41.055
10.804000,33.3445,5.0028,-1.6704,33.759
10.809000,29.8288,2.8600,-2.1289,30.041
10.819000,32.3403,4.2714,-0.5251,32.625
10.819000,36.1609,8.3033,0.9465,37.114
10.824000,34.5909,14.1729,3.2791,37.525
10.829000,26.0124,17.5038,2.7170,31.471
10.834000,7.8848,16.7575,2.9753,18.757
10.838000,-11.4302,10.2979,1.6768,15.476
10.845000,-14.7298,5.5511,5.8305,16.786
10.849000,-13.2923,3.1624,5.4554,14.712
10.853000,-16.5662,1.8212,1.6818,16.751
10.858000,-4.7469,-0.9516,-0.7040,4.892
10.863000,19.1722,0.2248,6.4313,20.223
10.868000,32.1123,6.8297,11.4112,34.757
10.873000,2.3018,6.8947,8.8736,11.471
10.878000,-10.3914,2.5624,-9.7973,14.510
10.883000,6.0909,1.7128,-0.0543,6.327
10.887000,14.7089,2.7303,3.0662,15.271
10.893000,20.6634,5.2807,2.9691,21.533
10.897000,25.2666,7.2258,2.2233,26.373
10.903000,27.3781,7.6650,-0.0389,28.431
10.907000,27.1060,6.9198,-0.9222,27.990
10.914000,25.4877,4.9536,-1.5838,26.013
10.921000,24.7532,3.9100,-1.9344,25.135
10.922000,25.0761,3.2714,-0.8230,25.302
10.932000,25.6039,3.0604,-0.3697,25.789
10.933000,25.5700,2.8678,-0.0814,25.730
10.937000,25.5156,2.8631,0.2788,25.677
10.941000,25.0373,2.8572,0.4074,25.203
10.947000,24.9004,2.2449,-0.0303,25.001
10.952000,24.7509,1.8413,0.3733,24.822
10.956000,24.3633,1.6239,0.4209,24.421
10.961000,23.7976,1.0564,0.5546,23.827
10.967000,23.3738,1.1376,0.1726,23.402
10.974000,22.7481,1.4126,-0.0058,22.792
10.975000,22.8672,2.1152,0.3719,22.968
10.980000,22.2326,2.3802,0.5235,22.366
10.985000,21.1633,2.6074,0.3946,21.327
10.990000,20.7925,3.3963,0.4121,21.072
10.997000,19.1436,3.0257,0.0704,19.381
11.000000,18.0724,3.2790,0.8595,18.388
11.005000,16.4028,3.6421,1.7576,16.894
11.012000,14.2189,4.3346,2.6320,15.096
11.015000,12.5528,5.8023,4.2039,14.454
11.020000,12.2939,7.6966,3.8067,14.996
11.026000,13.2922,9.6658,3.1786,16.740
11.032000,13.9893,9.7321,2.3085,17.197
11.034000,13.5760,8.3646,2.2537,16.104
11.039000,12.3140,6.2078,2.9748,14.107
11.044000,10.9271,4.2580,4.6909,12.631
11.049000,8.5325,2.1915,6.7466,11.096
11.054000,7.2074,1.4326,10.2766,12.634
11.073000,7.6279,1.0836,11.1292,13.536
11.075000,10.1382,1.2626,9.8860,14.217
11.076000,11.4384,2.1974,8.4464,14.388
11.082000,9.6208,3.6442,9.9181,14.290
11.083000,5.7860,4.8108,14.2522,16.117
11.084000,4.2964,5.3168,18.1047,19.352
11.090000,4.5818,5.0557,18.3856,19.611
11.093000,5.7532,4.1009,16.6091,18.049
11.098000,7.0807,3.3942,15.5121,17.386
11.103000,7.6389,3.0995,14.4680,16.652
11.108000,7.5694,3.1671,13.2193,15.559
11.112000,6.9805,3.3009,11.7395,14.051
11.118000,6.0670,3.3699,11.6801,13.586
11.123000,3.8511,3.4095,12.1820,13.223
11.127000,6.6857,4.0682,11.3719,13.805
11.132000,7.1401,3.9232,10.9086,13.615
11.136000,6.4924,3.4928,10.2295,12.609
11.144000,6.6219,3.4225,9.5554,12.119
11.147000,6.7096,3.4763,9.2337,11.932
11.151000,6.2486,3.2559,9.6629,11.959
11.158000,5.8771,2.7267,8.9663,11.062
11.162000,6.4645,2.1598,7.3839,10.049
11.166000,6.8457,1.6718,6.6436,9.685
11.171000,6.7067,1.4276,7.0166,9.811
11.176000,6.0129,1.6372,7.5978,9.827
11.181000,4.2055,2.3623,7.6709,9.061
11.186000,2.5631,3.5208,9.0167,10.013
11.196000,0.9983,4.7158,9.9400,11.047
11.197000,-1.2805,6.2009,10.8238,12.540
11.202000,-3.9244,8.6239,11.8656,15.184
11.206000,-5.9564,11.5734,11.8481,17.601
11.210000,-7.0983,14.3724,10.1637,18.980
11.214000,-8.6797,16.0303,8.0092,19.911
11.219000,-12.5213,18.0282,7.5348,23.207
11.224000,-15.3643,20.1153,7.4380,26.382
11.229000,-17.1471,22.6646,5.6258,28.972
11.234000,-18.3001,25.7935,2.2785,31.708
11.239000,-19.8232,29.0667,-1.8302,35.230
11.245000,-23.0187,31.3806,-5.2295,39.268
11.249000,-27.0601,31.5253,-6.5975,42.067
11.253000,-30.7360,31.6615,-5.6291,44.484
11.258000,-30.8529,31.7859,-6.6979,44.801
11.263000,-36.8757,31.2443,0.1976,48.333
11.268000,-39.8421,27.8463,2.3937,48.668
11.273000,-39.4753,23.5097,4.2967,46.146
11.278000,-36.3974,20.3403,4.7584,41.966
11.283000,-33.6441,17.3428,1.6831,37.888
11.287000,-29.7560,17.9025,-0.1012,34.726
11.293000,-27.1988,23.0140,0.0644,35.629
11.305000,-28.7174,23.7700,3.3928,37.433
11.305000,-32.4024,20.3342,2.3234,38.325
11.308000,-34.5620,16.7514,-0.4266,38.410
11.312000,-35.2251,15.1264,-4.4625,38.594
11.317000,-35.2427,14.4909,-8.6686,39.079
11.326000,-34.9057,12.7734,-12.1689,39.111
11.327000,-32.8164,10.3656,-15.3645,37.689
11.332000,-31.0752,8.8418,-15.8625,35.993
11.337000,-30.9126,7.2910,-15.6204,35.394
11.341000,-28.5872,7.4104,-11.3837,31.650
11.346000,-25.1984,7.0299,-6.7935,27.028
11.351000,-20.0673,6.5047,-3.3103,21.353
11.356000,-14.8658,5.6148,-2.2871,16.055
11.361000,-8.5154,4.4603,-2.4439,9.919
11.366000,34.2448,31.3048,-8.7942,47.223
11.371000,34.4842,31.0917,11.3259,47.793
11.376000,-14.1623,-39.9243,-8.3122,43.170
11.381000,19.2447,-6.6421,0.7360,20.372
11.386000,21.7046,30.4679,-26.7889,46.011
11.390000,-38.8421,29.6102,-1.7110,48.871
11.395000,-41.6688,-15.5441,32.3183,54.976
11.400000,-41.2957,30.0156,39.1627,64.343
11.405000,-41.1136,14.2663,6.0791,43.941
11.411000,37.3041,-26.7474,-39.0124,60.241
11.417000,37.3580,14.8181,-38.9444,55.963
11.420000,-13.2501,20.8662,22.4679,33.403
11.428000,-40.5971,-7.8829,37.0916,55.552
11.432000,-40.4210,-24.5132,-7.1881,47.817
11.435000,-18.7211,-2.1743,-32.5486,37.611
11.439000,20.6105,6.8729,-14.1937,25.952
11.445000,9.2859,3.2751,10.7985,14.614
11.465000,-1.4941,0.6610,-3.1531,3.551
11.467000,-1.4596,0.6575,-3.1216,3.508
11.467000,10.4770,2.8601,-2.2530,11.092
11.468000,10.5701,8.5454,6.2363,14.955
11.468000,1.6910,2.7754,3.1829,4.549
11.497000,0.7422,-1.2376,4.5703,4.793
11.499000,2.4207,1.2607,6.8571,7.380
11.500000,4.1997,4.7632,1.8709,6.620
11.501000,4.6679,6.4673,-3.8587,8.860
11.503000,7.7995,8.6023,-4.0928,12.312
11.504000,11.1369,10.0061,-1.0272,15.007
11.505000,13.4324,17.2732,-3.4802,22.156
11.510000,16.8146,20.2393,-7.5990,27.388
11.514000,23.5241,26.3347,-16.7813,39.096
11.517000,27.5582,29.6618,-27.0087,48.670
11.523000,29.0096,29.6218,-26.4852,49.198
11.527000,32.8879,29.5819,-25.1049,50.862
11.532000,36.5677,27.7461,-22.7413,51.227
11.537000,39.8003,25.8381,-16.6822,50.299
11.542000,40.0832,19.2872,-15.3595,47.059
11.547000,40.3973,15.0592,-16.5211,46.170
11.552000,40.7452,9.5633,-10.7044,43.200
11.564000,41.1246,5.2870,-2.4645,41.536
11.568000,41.5360,2.0841,5.0374,41.892
11.571000,41.9772,2.1209,9.3547,43.059
11.574000,24.5879,7.7123,8.4762,27.127
11.607000,5.7916,12.0757,12.3053,18.187
11.609000,-12.2156,12.1354,12.7629,21.433
11.610000,-17.3474,8.0722,1.5304,19.195
11.611000,-14.6982,6.7255,1.3458,16.220
11.611000,-10.9600,5.7391,3.3675,12.822
11.612000,-12.4182,3.6520,1.5538,13.037
11.614000,-2.2327,0.0846,-0.5967,2.313
11.616000,15.4033,-7.8599,-0.7920,17.311
11.617000,27.2929,-7.1070,-0.4983,28.207
11.620000,22.1059,4.7469,4.1755,22.992
11.626000,-5.7250,-4.9578,-4.8581,8.998
11.631000,8.1444,4.0671,-8.8531,12.698
11.636000,23.1766,3.6242,3.0472,23.655
11.643000,29.7227,4.2163,1.7350,30.070
11.647000,35.1447,4.6224,2.5500,35.539
11.651000,36.5103,5.3190,1.4209,36.923
11.655000,34.2204,5.5279,-0.3047,34.665
11.659000,30.6577,4.6737,-0.4746,31.016
11.663000,27.6277,3.4019,-0.4722,27.840
11.669000,25.1851,2.1504,-0.6873,25.286
11.674000,25.1109,1.6800,-0.5432,25.173
11.678000,24.5239,1.2671,-0.4549,24.561
11.690000,23.6766,1.2879,-0.8695,23.728
11.696000,23.0360,1.3028,-0.9205,23.091
11.697000,21.7442,1.0448,-1.1212,21.798
11.698000,20.2566,0.5768,-1.5243,20.322
11.712000,19.7079,0.5413,-1.6122,19.781
11.714000,18.3953,0.2807,-1.8096,18.486
11.715000,18.0049,0.7586,-2.1113,18.144
11.718000,16.6697,0.5652,-2.9246,16.934
11.723000,16.2306,1.0629,-2.6210,16.475
11.728000,15.4587,0.9209,-2.4425,15.678
11.732000,15.5925,1.6479,-2.4643,15.872
11.737000,15.4778,2.5396,-2.3328,15.857
11.742000,13.8161,2.8228,-2.2587,14.281
11.746000,12.4297,4.0751,-1.4415,13.160
11.751000,10.9541,4.9658,-0.5169,12.038
11.757000,9.5606,5.8649,0.4608,11.226
11.761000,8.2266,5.8781,1.9054,10.289
11.767000,6.7238,6.0574,3.0179,9.540
11.771000,5.1710,5.6732,3.4860,8.431
11.776000,3.1921,4.9223,3.9731,7.085
11.781000,2.1169,4.2701,4.7269,6.713
11.786000,-2.8917,2.6534,6.9314,7.965
11.791000,5.9286,2.3134,7.5678,9.888
11.795000,9.1609,3.4692,6.1009,11.540
11.800000,10.7333,4.9836,3.8435,12.442
11.807000,11.4633,6.5293,3.3769,13.618
11.810000,9.8591,7.4115,4.2300,13.039
11.831000,7.7306,7.5395,5.6773,12.200
11.832000,6.4815,7.4083,7.2694,12.237
11.832000,5.9589,7.4701,7.9912,12.457
11.832000,4.9952,7.1112,7.8605,11.718
11.834000,4.2760,6.5791,7.6666,10.970
11.839000,3.3891,5.8605,7.3880,10.021
11.844000,3.4480,5.4141,7.1389,9.600
11.849000,3.7394,4.9339,7.0749,9.401
11.854000,3.8870,4.3633,7.8589,9.793
11.858000,4.1843,3.8616,8.2320,10.009
11.863000,4.2238,3.4587,8.3198,9.951
11.868000,4.5929,3.4256,6.4409,8.621
11.873000,6.4104,3.1433,5.7920,9.194
11.878000,6.6220,2.2737,6.6436,9.652
11.883000,5.2283,1.5087,6.5863,8.543
11.887000,4.9890,0.6664,7.3449,8.904
11.892000,5.0600,-0.2957,7.2926,8.881
11.898000,4.7822,-1.3298,6.0947,7.860
11.902000,4.5341,-1.7880,4.9975,6.981
11.907000,3.9213,-1.5828,4.0626,5.864
11.912000,3.3628,-0.6623,3.2928,4.753
11.917000,2.6982,0.6667,2.3588,3.645
11.922000,1.2393,1.9617,1.7111,2.883
11.927000,-1.0718,3.0273,1.7830,3.673
11.933000,-3.8344,3.9699,2.3939,6.016
11.937000,-6.3833,5.2521,2.4813,8.631
11.941000,-7.7898,7.3670,1.9922,10.905
11.950000,-8.0569,10.1567,1.0989,13.011
11.951000,-8.2524,13.2729,-0.1394,15.630
11.957000,-8.5944,16.5538,-1.2312,18.692
11.962000,-9.3029,19.8990,-2.5606,22.115
11.966000,-10.4792,23.3213,-4.0123,25.880
11.971000,-12.5026,26.4028,-5.5789,29.741
11.976000,-15.5165,28.8049,-6.1731,33.296
11.981000,-19.8313,29.9016,-6.7454,36.509
11.987000,-23.9928,29.7316,-5.6177,38.616
11.991000,-29.2953,29.0333,-4.2068,41.459
11.995000,-32.7700,27.0515,-2.0394,42.542
12.000000,-33.4557,23.5791,-3.9736,41.122
12.005000,-31.5781,19.2201,-8.0802,37.840
12.010000,-30.9110,18.0604,-7.3490,36.547
12.015000,-30.6429,24.4569,-1.8022,39.248
12.020000,-32.4741,26.8688,2.3783,42.216
12.025000,-35.0747,25.0197,4.5000,43.318
12.030000,-36.2187,22.6637,7.0891,43.309
12.036000,-35.3271,22.5041,7.3960,42.534
12.040000,-33.3901,22.7266,5.8430,40.811
12.045000,-32.5308,21.0222,2.9774,38.847
12.050000,-33.8332,17.7688,-1.0230,38.229
12.056000,-35.4932,14.0784,-4.1833,38.412
12.060000,-36.9733,10.5952,-5.7355,38.887
12.071000,-37.7676,7.9723,-5.1563,38.943
12.074000,-36.1292,6.7407,-2.1578,36.816
12.075000,-32.3710,6.7665,-1.0863,33.088
12.097000,-29.3495,7.2510,-0.5953,30.238
12.098000,-24.3710,9.9657,0.3930,26.333
12.099000,-18.3940,11.4432,1.4744,21.713
12.099000,-15.0533,10.9154,0.6495,18.606
12.100000,-14.5614,10.7949,3.8199,18.525
12.103000,33.6456,31.7743,12.7573,48.004
12.108000,33.9330,31.5015,4.0287,46.476
12.113000,34.3712,-42.8384,-39.5736,67.695
12.118000,34.8856,-10.7025,-39.5074,53.781
12.122000,11.5694,21.8455,-15.9072,29.396
12.128000,-42.2286,30.3217,22.8277,56.778
12.133000,-41.5741,13.0295,13.6466,45.655
12.137000,-41.0235,-2.0930,6.8977,41.652
12.142000,-40.5704,2.6536,38.7969,56.198
12.147000,-40.2171,7.3220,38.8005,56.360
12.152000,-39.9789,-48.4744,-32.7451,70.854
12.157000,6.1935,-16.8886,-39.1960,43.127
12.170000,10.8232,17.4773,-36.1601,41.595
12.173000,-19.0393,4.2171,39.2253,43.805
12.174000,-17.9071,-3.7950,0.7749,18.321
12.177000,-14.6558,-0.7900,-37.8634,40.609
12.197000,1.8085,3.3039,-2.2565,4.391
12.197000,8.3864,3.9131,24.2033,25.912
12.198000,-3.5725,0.7745,9.7248,10.389
12.198000,-1.9675,0.7185,-8.3057,8.566
12.202000,4.2401,3.8388,-8.5772,10.309
12.206000,8.5687,4.4912,7.4470,12.209
12.211000,6.4664,5.8406,9.3878,12.808
12.216000,-0.6987,1.1926,-1.8780,2.332
12.220000,-0.6763,1.6674,-2.7545,3.290
12.225000,2.2649,5.9254,-5.1721,8.185
12.230000,4.1298,8.1662,-7.0423,11.547
12.235000,5.1249,8.9371,-2.6420,10.636
12.240000,8.4713,9.8700,3.0744,13.365
12.251000,13.8505,14.8224,3.7928,20.638
12.252000,18.7387,20.5515,-4.0554,28.106
12.255000,22.9667,26.7548,-19.1362,40.118
12.260000,24.0239,29.3775,-28.0064,47.165
12.297000,24.7622,29.7112,-29.9054,48.890
12.301000,27.9748,29.6818,-26.5504,48.667
12.303000,31.6815,28.1754,-23.4407,48.446
12.305000,36.1955,24.9958,-16.3326,46.922
12.307000,40.0482,21.2484,-16.9930,48.416
12.309000,40.7267,19.1584,-13.4339,46.970
12.311000,41.0207,15.0219,-8.5856,44.520
12.314000,41.3457,10.6265,-4.4038,42.916
12.316000,41.7074,9.0878,0.4511,42.688
12.317000,42.1132,9.4992,4.9591,43.455
12.319000,42.5340,10.4593,6.1922,44.237
12.320000,18.1478,14.3181,5.1328,23.679
12.325000,-5.9499,9.8759,7.3758,13.687
12.328000,-19.6787,6.6647,13.5640,24.812
12.335000,-14.8435,2.7734,14.3406,20.825
12.338000,-11.8185,3.6538,6.3950,13.926
12.343000,-13.2881,3.3699,4.5518,14.445
12.348000,-6.0723,5.4515,1.3430,8.270
12.352000,8.9626,3.5503,-0.3225,9.646
12.358000,21.8220,4.6578,0.0644,22.314
12.368000,32.1451,4.6807,1.9281,32.541
12.371000,5.8237,8.0266,6.5505,11.885
12.374000,-11.4051,0.9469,-9.0785,14.608
12.410000,7.7065,8.2119,3.9324,11.929
12.411000,21.0312,10.2085,8.3815,24.835
12.412000,28.2419,12.9553,5.0430,31.478
12.413000,32.3952,14.1649,3.5051,35.530
12.413000,33.3105,15.3909,0.4032,36.696
12.414000,31.3164,14.9365,-2.4124,34.780
12.415000,29.5662,14.0292,-3.3708,32.899
12.416000,28.3492,12.8002,-2.5703,31.211
12.419000,27.1474,11.3623,-1.4595,29.465
12.420000,26.1324,9.9103,-0.5318,27.953
12.426000,25.1387,8.7847,0.2405,26.631
12.434000,23.8893,7.7956,0.5028,25.134
12.440000,22.5874,6.9321,0.2736,23.629
12.441000,21.3886,6.2266,-0.1868,22.277
12.445000,20.1683,5.7067,-0.5663,20.968
12.453000,19.2777,5.3449,-1.0629,20.033
12.455000,18.5922,5.3386,-1.6500,19.414
12.464000,17.9589,5.5034,-2.1819,18.910
12.466000,17.4068,5.6703,-2.2218,18.441
12.470000,16.6379,5.8737,-1.8469,17.741
12.476000,15.7222,6.0194,-1.7644,16.927
12.481000,15.3416,6.3211,-1.1682,16.634
12.484000,14.3943,6.7014,-0.7330,15.895
12.489000,13.8774,7.1076,-0.5251,15.600
12.495000,12.8082,6.7638,-0.4471,14.491
12.501000,10.7184,5.9140,-0.0261,12.242
12.503000,8.3914,3.9734,0.3770,9.292
12.524000,6.4275,1.8874,1.2692,6.818
12.529000,4.5402,-0.1903,2.7867,5.331
12.530000,2.5715,-2.0683,5.3967,6.326
12.531000,0.7475,-3.6683,6.9336,7.880
12.533000,-1.7002,-5.0743,7.7167,9.391
12.534000,7.7571,-4.3379,4.9992,10.197
12.538000,11.4621,-2.6233,1.5947,11.866
12.577000,12.1986,-1.4349,-0.3058,12.286
12.581000,11.6963,-0.3894,2.1225,11.894
12.583000,10.6015,0.3159,5.5003,11.948
12.585000,8.8170,0.0882,7.2067,11.388
12.586000,7.2454,-0.7010,7.3745,10.362
12.588000,6.7042,-1.2238,7.1285,9.862
12.591000,7.6788,-1.1115,6.1336,9.890
12.593000,8.6716,-0.4413,5.8536,10.472
12.596000,9.2847,0.2366,5.6267,10.859
12.597000,9.8281,0.9415,5.7863,11.444
12.597000,10.4190,1.5611,6.3312,12.291
12.598000,10.4144,2.0046,7.8414,13.190
12.602000,9.5613,2.2458,8.5851,13.045
12.608000,8.1462,2.4774,7.6873,11.471
12.611000,9.2073,2.0078,7.7655,12.211
12.616000,7.5556,1.9716,8.3214,11.411
12.620000,6.3650,1.4603,7.9600,10.296
12.626000,6.7337,1.5667,6.9347,9.792
12.631000,7.1604,1.7460,5.8900,9.435
12.636000,7.2443,2.1515,4.2723,8.681
12.644000,7.0375,3.0892,2.3383,8.033
12.645000,6.0110,4.2912,1.3080,7.500
12.651000,4.8248,5.8217,1.8978,7.796
12.690000,4.0182,7.8214,1.8783,8.992
12.692000,2.9140,10.1846,1.2236,10.664
12.693000,1.2296,12.9432,0.9003,13.033
12.694000,-1.1390,15.8512,0.6042,15.904
12.694000,-4.0737,18.6496,0.3554,19.093
12.695000,-6.8957,21.3529,0.5246,22.445
12.695000,-9.0911,24.2500,1.0344,25.919
12.696000,-10.8645,26.9911,1.7413,29.148
12.697000,-12.0273,29.3336,2.4186,31.796
12.702000,-12.8504,31.0564,2.3133,33.690
12.704000,-14.3352,31.2269,1.2090,34.381
12.708000,-16.3988,31.4007,-0.4671,35.428
12.714000,-21.6080,31.5726,-2.5798,38.346
12.719000,-26.6034,31.7391,-4.2677,41.633
12.724000,-30.8694,31.8967,-4.6186,44.628
12.729000,-33.4472,32.0427,-4.1481,46.504
12.732000,-33.3151,26.2894,-9.3897,43.465
12.740000,-34.6645,18.9318,-13.0337,41.592
12.744000,-36.8640,21.3192,-9.6549,43.666
12.748000,-39.6657,24.8789,-2.7033,46.900
12.752000,-43.8067,23.7348,0.3612,49.825
12.769000,-45.9273,20.1825,4.0895,50.333
12.771000,-45.4046,18.4489,6.0446,49.381
12.772000,-41.8467,19.8895,5.9053,46.708
12.773000,-37.4444,20.7349,3.7118,42.963
12.777000,-36.3666,19.0619,0.0544,41.060
12.782000,-37.8578,15.2701,-4.1475,41.032
12.787000,-39.1736,10.9303,-7.2365,41.309
12.791000,-42.1358,7.4134,-8.2835,43.577
12.797000,-42.8659,5.2227,-4.8775,43.457
12.802000,-40.3027,5.0442,-1.7093,40.653
12.806000,-34.9764,6.5414,-0.2419,35.584
12.811000,-28.4669,8.8444,1.2767,29.836
12.816000,-25.9149,8.8759,1.6632,27.443
12.821000,-20.3395,8.7914,2.2083,22.268
12.832000,-11.5291,8.5888,4.3414,15.018
12.835000,9.6959,20.1160,11.7019,25.211
12.837000,33.7798,31.7816,-0.7992,46.387
12.841000,34.0568,13.3620,-3.9149,36.793
12.846000,34.4727,-28.3790,-39.1964,59.415
12.857000,35.0089,1.6188,-39.1443,52.541
12.863000,0.6770,19.7023,-6.0840,20.631
12.864000,-42.0428,25.7178,20.5555,53.400
12.867000,-41.3780,1.8885,12.9748,43.406
12.870000,-40.8177,-13.2155,13.8121,45.072
12.875000,-40.3827,7.4188,38.9422,56.589
12.880000,-40.0831,9.1685,38.9162,56.614
12.884000,-39.9222,-44.4728,-39.3004,71.527
12.903000,20.6815,-7.5684,-39.1461,44.916
12.904000,29.3692,17.9671,-14.1943,37.240
12.904000,-10.3063,5.4660,37.7230,39.486
12.906000,-19.9952,-4.5013,0.0763,20.496
12.909000,-15.6880,-1.4508,-20.1943,25.613
12.914000,-0.2166,2.7991,2.2714,3.611
12.921000,5.8904,2.7876,13.8582,15.314
12.927000,-1.8666,1.4378,0.2222,2.367
12.929000,-0.5111,0.3695,-7.7321,7.758
12.933000,4.7999,3.2101,0.5524,5.801
12.938000,6.1998,4.3860,9.2186,11.944
12.942000,3.3444,3.9426,4.8646,7.099
12.948000,-0.3621,0.6130,-0.4487,0.842
12.952000,-0.1278,3.5733,-6.2550,7.205
12.957000,1.3327,5.7799,-10.9805,12.480
12.962000,4.0212,6.3705,-0.0985,7.534
12.967000,5.4843,7.1639,8.5636,12.439
12.972000,10.5227,11.9577,3.2187,16.250
12.977000,16.1380,17.7308,-3.0456,24.168
12.982000,18.1768,19.9604,-10.7104,29.043
12.992000,21.0037,25.7864,-23.2984,40.607
12.995000,23.2352,29.8181,-30.2504,48.416
12.997000,25.2346,29.7833,-26.3767,47.112
13.018000,27.6463,29.7504,-26.5509,48.522
13.019000,31.6799,29.7208,-26.0647,50.659
13.020000,35.5341,25.1216,-19.6711,47.757
13.021000,40.2973,20.4854,-15.4224,47.764
13.023000,40.5560,16.1581,-15.0518,46.178
13.026000,40.8411,11.3589,-11.3007,43.872
13.031000,41.1544,9.2733,-5.4847,42.541
13.037000,41.5041,7.4448,-0.8253,42.175
13.041000,41.8992,6.4783,3.7160,42.560
13.045000,31.0466,7.6438,11.2714,33.902
13.050000,7.4687,10.0872,20.1628,23.750
13.055000,-12.1688,6.9028,15.2793,20.717
13.060000,-23.2373,5.2379,5.6886,24.490
13.065000,-18.7191,5.7130,2.6951,19.756
13.069000,-9.4392,5.1456,6.8434,12.744
13.075000,-10.5866,5.7289,1.8259,12.175
13.080000,-10.0440,5.1086,-3.5964,11.828
13.085000,5.9118,4.9531,-1.2877,7.819
13.090000,27.0191,7.8389,5.0472,28.582
13.095000,41.1058,4.9537,9.4845,42.476
13.099000,23.2564,14.1376,13.6352,30.441
13.105000,-7.7784,3.1087,-5.7743,10.174
13.110000,0.0735,7.6682,-1.9153,7.904
13.115000,12.3045,8.6747,7.8643,16.985
13.126000,18.0865,11.7133,6.1611,22.412
13.129000,22.8386,12.9844,5.5262,26.847
13.135000,26.3730,14.7105,3.2253,30.370
13.136000,27.3289,15.6726,-0.1204,31.504
13.138000,27.8263,15.0205,-2.6980,31.736
13.143000,28.0841,14.3412,-3.4728,31.725
13.148000,28.3328,13.0440,-3.1519,31.350
13.158000,27.6673,10.9435,-2.7637,29.881
13.159000,26.6892,9.2897,-1.8487,28.320
13.164000,25.6374,7.9655,-0.8180,26.859
13.167000,24.3443,6.6890,-0.4166,25.250
13.172000,22.9052,5.5920,-0.5367,23.584
13.178000,21.8122,4.7681,-0.4923,22.333
13.182000,21.0218,4.1414,-0.2808,21.428
13.188000,20.3640,3.9472,-0.1125,20.743
13.192000,19.9248,4.2418,-0.3022,20.374
13.197000,19.3294,4.6473,-0.2405,19.882
13.204000,18.2965,4.9178,0.0485,18.946
13.207000,17.1303,5.3739,0.3600,17.957
13.211000,15.7570,6.0156,0.4707,16.873
13.218000,14.4661,6.5726,0.6313,15.902
13.222000,12.9556,7.1399,1.0809,14.832
13.227000,11.5840,7.4738,2.1215,13.948
13.240000,11.6409,7.4069,3.7683,14.303
13.244000,12.1568,6.4867,4.5499,14.511
13.248000,11.8955,4.9235,5.0529,13.830
13.254000,11.6704,3.4787,5.5563,13.386
13.256000,11.2681,2.2455,6.3117,13.109
13.257000,10.6639,0.8413,7.1655,12.875
13.288000,7.6771,-0.3067,6.7259,10.211
13.290000,10.3467,-1.1801,4.6629,11.410
13.291000,13.1657,-0.9340,1.1986,13.253
13.293000,13.3457,-0.4678,-1.0329,13.394
13.294000,12.7272,-0.0055,-0.3348,12.732
13.295000,10.2718,0.1803,3.1051,10.732
13.296000,7.4716,-0.4404,6.6729,10.027
13.298000,5.0401,-1.9159,8.8146,10.333
13.301000,3.6480,-3.5475,9.4156,10.703
13.305000,4.0919,-4.4791,8.5770,10.506
13.312000,5.8856,-4.3123,7.6078,10.541
13.316000,8.2275,-3.4078,6.2251,10.865
13.318000,10.3380,-2.3304,5.7196,12.042
13.325000,11.6590,-1.1737,6.3400,13.323
13.329000,12.4573,0.0801,7.1174,14.347
13.334000,13.0565,1.2473,8.0358,15.382
13.338000,12.9151,1.9429,7.8218,15.223
13.343000,12.3467,2.3482,7.6297,14.703
13.348000,11.2673,2.7222,7.6023,13.862
13.354000,11.5117,2.8934,7.7080,14.153
13.359000,11.8093,2.9511,7.4540,14.273
13.363000,11.5166,3.0725,6.6895,13.668
13.368000,11.8256,3.3147,5.4111,13.421
13.374000,11.7022,3.9809,3.9875,12.988
13.378000,10.7292,5.0964,1.8787,12.026
13.397000,9.0368,6.5002,0.3979,11.139
13.400000,7.0771,8.0937,0.2313,10.754
13.401000,5.0026,9.9460,-0.1080,11.134
13.401000,2.4687,11.9211,-0.7402,12.196
13.402000,-0.3457,14.2343,-0.9613,14.271
13.407000,-3.0320,16.9077,-1.0838,17.212
13.411000,-5.5281,19.7768,-1.2536,20.573
13.421000,-7.4461,22.4785,-1.6313,23.736
13.421000,-7.7166,24.8990,-0.9530,26.085
13.426000,-9.7949,28.0616,-0.0023,29.722
13.430000,-9.6931,31.1782,0.2185,32.651
13.436000,-8.4110,31.3746,-2.6548,32.591
13.441000,-8.2371,31.5775,-5.8680,33.157
13.445000,-11.8390,31.7780,-8.3166,34.917
13.454000,-18.1924,31.9703,-9.0938,37.891
13.456000,-25.6256,32.1512,-8.6026,42.004
13.464000,-32.1089,32.3206,-7.5048,46.173
13.466000,-33.6713,30.9241,-9.8058,46.757
13.473000,-33.8266,23.5068,-12.8570,43.152
13.482000,-36.1940,21.9928,-8.6481,43.226
13.483000,-39.6016,26.9859,-2.9060,48.010
13.484000,-44.6856,28.8852,1.8125,53.240
13.504000,-46.2141,26.2287,6.6137,53.548
13.508000,-46.2383,23.8211,9.7998,52.929
13.509000,-42.9887,24.9842,10.3940,50.796
13.511000,-37.7258,26.8270,6.8420,46.795
13.514000,-36.1607,25.1010,5.1799,44.323
13.515000,-36.0325,19.7129,2.0063,41.121
13.520000,-41.2842,12.7659,-4.2180,43.418
13.524000,-45.9475,7.5384,-4.1156,46.743
13.528000,-45.8279,5.5435,-1.0567,46.174
13.533000,-43.5620,6.2612,0.6394,44.014
13.538000,-38.0988,8.6349,1.4715,39.093
13.543000,-30.5676,11.7004,2.9892,32.867
13.548000,-23.8011,13.3860,3.3655,27.514
13.553000,-25.3088,12.0844,2.8491,28.190
13.557000,-18.4995,11.4723,4.3535,22.199
13.563000,-0.4969,17.5979,9.6164,20.060
13.567000,33.4709,32.1632,-6.9411,46.936
13.572000,33.7326,27.0909,-16.0890,46.159
13.578000,34.1475,-21.5807,-38.9973,56.148
13.582000,34.6868,3.6259,-38.9115,52.253
13.589000,-8.8709,9.9737,-3.4297,13.781
13.592000,-42.3578,9.3888,21.3690,48.363
13.596000,-41.7214,-1.8000,11.6672,43.359
13.601000,-41.2002,-10.1937,26.9814,50.293
13.606000,-40.7974,20.3332,38.9949,59.987
13.618000,-40.5317,21.6681,38.9723,60.259
13.621000,-28.9474,-41.8762,-39.2341,64.272
13.622000,37.9749,-8.0125,-39.1119,55.100
13.638000,31.4264,26.2044,-3.6180,41.078
13.640000,-23.9359,3.7707,21.4491,32.361
13.641000,-21.8287,-7.9164,-7.3774,24.364
13.644000,-10.5192,-3.0139,-4.9811,12.023
13.646000,4.2484,2.4338,12.0978,13.051
13.650000,3.7151,2.4403,13.6206,14.328
13.656000,-2.3481,2.2962,-0.2586,3.294
13.660000,1.0605,3.0637,-12.3659,12.784
13.665000,4.6603,4.5950,-3.2942,7.327
13.670000,5.1056,6.4156,6.0598,10.196
13.675000,0.0258,1.9892,1.5494,2.522
13.679000,0.1937,0.4177,-1.6681,1.730
13.684000,5.9176,7.5502,-4.2116,10.477
13.689000,8.3196,10.0376,-6.7025,14.659
13.695000,7.9042,8.5759,-2.0262,11.838
13.700000,9.0299,10.8896,1.0665,14.187
13.704000,14.0649,16.3361,-2.6203,21.715
13.710000,17.8956,21.4513,-10.5955,29.878
13.714000,22.4174,27.5390,-25.6043,43.778
13.719000,23.1940,28.4479,-29.1859,46.894
13.724000,24.8344,27.3569,-25.9621,45.157
13.729000,29.1172,26.9729,-22.8603,45.803
13.733000,34.7337,26.6762,-20.0459,48.165
13.738000,37.2517,21.4788,-19.8984,47.381
13.752000,40.0308,19.1944,-16.1659,47.246
13.755000,40.3068,13.8987,-10.8562,43.996
13.756000,40.6133,8.2313,-4.8349,41.720
13.781000,40.9508,5.6290,-2.1474,41.392
13.782000,41.3242,3.6602,-2.2121,41.545
13.782000,39.9589,4.5531,-1.9194,40.263
13.782000,23.7259,8.1049,3.9169,25.376
13.782000,5.1231,7.6171,11.7495,14.910
13.783000,-12.3937,4.9395,17.7790,22.228
13.787000,-21.3066,2.0697,9.2169,23.307
13.792000,-17.1092,3.4038,1.5894,17.517
13.797000,-8.2883,5.6744,1.9974,10.241
13.803000,-6.7749,4.7573,2.0528,8.529
13.806000,-6.6535,4.9156,-1.0198,8.335
13.811000,4.4747,2.9050,-1.6801,5.593
13.816000,17.7064,1.3609,0.7301,17.774
13.821000,31.0499,2.1093,3.1432,31.280
13.826000,28.2525,9.5827,12.0328,32.169
13.831000,-0.3857,4.7871,0.2515,4.809
13.837000,-1.4825,5.3439,-5.7353,7.978
13.840000,13.0536,7.6758,6.5164,16.486
13.845000,17.6083,10.1899,5.3832,21.044
13.850000,21.6882,11.7398,4.9420,25.152
13.855000,25.2009,13.0317,3.5386,28.591
13.860000,25.6382,13.4791,1.1079,28.987
13.865000,25.2721,12.9163,-0.7258,28.391
13.870000,25.3302,12.0309,-1.3076,28.073
13.875000,25.6441,10.7318,-1.1405,27.823
13.879000,25.9333,9.2811,-1.1124,27.567
13.885000,25.6952,7.9049,-1.1478,26.908
13.889000,25.0402,6.7025,-1.2687,25.953
13.896000,23.7392,5.6751,-1.5480,24.457
13.899000,22.5760,4.9117,-1.4656,23.151
13.904000,21.2730,4.1262,-1.3735,21.713
13.908000,19.9421,3.5372,-1.2880,20.294
13.914000,18.6953,3.0857,-1.2926,18.992
13.919000,17.5751,2.7800,-1.0839,17.827
13.923000,16.8969,2.7770,-0.7502,17.140
13.928000,16.0486,2.8949,-0.4419,16.314
13.933000,15.0832,3.1528,-0.2449,15.411
13.938000,14.1136,3.2879,0.2586,14.494
13.943000,12.6143,3.4661,0.8211,13.108
13.948000,11.6967,4.0382,1.2314,12.435
13.953000,10.9444,4.8822,1.5534,12.084
13.957000,10.9087,6.1028,1.8595,12.637
13.963000,10.6166,7.4259,2.5919,13.213
13.967000,11.2395,8.3025,3.2093,14.337
13.974000,10.6716,7.6739,2.7974,13.439
13.977000,9.8065,6.2383,3.2934,12.080
13.982000,8.1017,3.4829,4.7706,10.026
13.987000,6.0242,0.8314,6.7555,9.089
13.998000,2.7386,-1.5286,8.3966,8.963
13.999000,1.5221,-3.2752,9.1696,9.855
14.001000,9.3110,-2.9662,5.5775,11.252
14.007000,11.7681,-1.3676,2.9289,12.204
14.011000,10.2851,-0.0574,2.8799,10.681
14.016000,7.8755,1.0158,6.8919,10.514
14.021000,5.9542,1.0953,10.0525,11.735
14.026000,4.8851,0.2452,9.8531,11.000
14.031000,5.0863,-0.8233,8.5692,9.999
14.036000,6.1663,-1.2817,7.4229,9.735
14.041000,6.8781,-1.0920,6.6768,9.648
14.046000,6.7294,-0.9605,5.7006,8.872
14.050000,6.8726,-0.8292,6.5002,9.496
14.056000,6.7973,-0.6745,7.3532,10.036
14.061000,6.3734,-0.9914,8.1202,10.370
14.066000,6.8907,-1.1900,8.0127,10.635
14.071000,6.9282,-1.3139,7.9443,10.623
14.078000,6.2154,-1.2211,8.1735,10.341
14.081000,6.6111,-1.6924,8.4094,10.830
14.086000,6.7514,-1.5192,7.8808,10.488
14.097000,7.1162,-1.1939,6.5380,9.737
14.101000,7.6638,-0.6352,5.2928,9.336
14.104000,8.0633,-0.1060,4.2106,9.097
14.108000,8.2393,0.6876,3.0389,8.809
14.113000,7.5259,1.8242,1.6906,7.926
14.115000,6.1104,3.3867,1.0446,7.064
14.143000,4.5400,5.0306,1.8346,7.020
14.145000,2.8261,6.4911,2.5460,7.524
14.146000,0.9732,7.8860,3.3773,8.634
14.147000,-0.7325,9.6486,3.8259,10.405
14.148000,-2.5586,11.7148,3.4076,12.466
14.150000,-4.0718,14.0345,2.9841,14.915
14.151000,-4.9265,16.3902,2.9907,17.374
14.153000,-5.5599,18.9533,3.1046,19.994
14.160000,-6.0472,21.4067,3.5034,22.519
14.164000,-6.2094,23.8366,3.3629,24.861
14.169000,-6.7281,26.4213,1.9338,27.333
14.173000,-8.1692,28.9412,-0.5454,30.077
14.179000,-10.7220,31.2630,-3.5395,33.240
14.184000,-13.4168,31.7463,-5.5308,34.906
14.188000,-19.6109,31.9085,-6.1872,37.961
14.193000,-26.0107,31.7729,-4.9824,41.363
14.197000,-29.9244,29.0858,-2.7165,41.819
14.202000,-30.0181,24.3657,-4.7218,38.950
14.208000,-29.1700,16.8601,-6.2613,34.269
14.213000,-31.3580,17.8487,-6.8682,36.730
14.217000,-32.7128,24.4985,0.1333,40.870
14.236000,-35.9411,26.6747,2.5975,44.834
14.239000,-38.9015,24.4705,4.8927,46.218
14.240000,-39.9182,22.1540,6.2193,46.075
14.241000,-38.3023,22.4798,6.0219,44.818
14.242000,-34.9330,23.2442,3.9993,42.150
14.247000,-34.1530,22.0664,0.8070,40.669
14.251000,-36.4637,18.9099,-3.7316,41.245
14.261000,-38.9621,13.8098,-7.6338,42.036
14.262000,-42.9958,9.7175,-9.2892,45.048
14.265000,-45.6108,6.4647,-6.7051,46.552
14.271000,-43.6475,5.9065,-2.3296,44.107
14.276000,-38.4466,7.2284,-1.4709,39.148
14.281000,-34.1156,10.3444,-1.5612,35.684
14.285000,-27.2561,13.6063,0.1149,30.464
14.290000,-16.3184,15.6919,0.0936,22.639
14.295000,-12.8357,15.0226,-1.1683,19.794
14.300000,33.4930,32.2317,20.6099,50.847
14.305000,33.6702,32.0157,10.2680,47.583
14.310000,34.0160,-30.2957,-33.9755,56.827
14.314000,34.4407,-5.0122,-39.6305,52.743
14.320000,34.9594,24.8560,-39.5276,58.330
14.325000,10.5585,30.7618,-24.7221,40.853
14.329000,-36.2271,23.8249,4.3800,43.580
14.334000,-41.4803,3.4441,17.6122,45.196
14.346000,-40.8599,0.7532,38.6822,56.271
14.351000,-40.3434,1.7828,38.5883,55.855
14.353000,-39.9814,-43.5180,12.1454,60.331
14.397000,-39.6579,-48.2990,-39.5613,73.964
14.400000,16.7615,10.3598,-39.5038,44.145
14.401000,15.1991,16.6680,38.8802,44.950
14.402000,-14.8885,-3.0969,10.6836,18.585
14.404000,-14.3090,-2.0029,-30.4882,33.739
14.405000,-7.8451,0.8964,-4.7027,9.190
14.406000,-1.7542,3.3291,25.3633,25.641
14.407000,-1.4031,2.2836,-1.7907,3.223
14.407000,-1.2768,3.0609,-18.0777,18.379
14.408000,0.6099,5.4750,-10.0340,11.447
14.409000,2.7816,4.8966,4.9794,7.517
14.410000,-1.4964,2.5554,3.2768,4.417
14.412000,-2.9440,1.9381,-2.2441,4.178
14.418000,3.4075,5.0525,-4.2698,7.441
14.421000,6.9617,7.5704,-3.6845,10.925
14.427000,6.8053,9.1030,-2.9777,11.749
14.431000,6.4679,10.9397,-0.5539,12.721
14.436000,10.3788,14.5334,1.7919,17.949
14.441000,15.2864,19.0840,-4.1535,24.802
14.446000,21.7989,23.6699,-14.8975,35.460
14.457000,23.9679,27.8082,-25.1748,44.514
14.459000,24.1013,29.2001,-28.5552,47.423
14.465000,26.5633,29.2528,-26.1009,47.356
14.467000,28.9187,28.6267,-20.5699,45.595
14.471000,29.2960,24.4116,-17.0427,41.769
14.526000,35.2737,22.2298,-15.2528,44.397
14.528000,39.3528,16.8901,-12.2597,44.545
14.530000,40.5710,13.1708,-8.9763,43.590
14.532000,40.8324,10.2850,-7.9557,42.853
14.533000,41.1283,7.2280,-6.3419,42.237
14.535000,41.4660,5.5427,-4.3966,42.065
14.536000,41.8472,6.9327,-2.2152,42.475
14.537000,30.1676,10.2770,-1.5435,31.907
14.538000,1.8420,8.9033,10.0780,13.573
14.540000,-17.4446,2.2775,17.1428,24.564
14.541000,-21.7414,-2.2713,18.3767,28.558
14.543000,-14.1252,0.1640,7.3308,15.915
14.545000,-10.6994,2.3974,6.1809,12.587
14.547000,-12.2461,3.6650,2.5827,13.041
14.548000,-9.2672,4.9184,-0.7788,10.520
14.549000,3.5685,3.4688,-2.2497,5.461
14.554000,17.5925,5.2992,1.8469,18.466
14.560000,33.7213,4.4362,5.8906,34.518
14.564000,29.1527,13.0838,12.2803,34.233
14.569000,-1.5923,3.6167,0.1174,3.953
14.575000,-1.7630,4.7114,-3.3726,6.056
14.579000,11.9845,6.4234,7.9642,15.758
14.583000,19.2743,8.9206,7.7120,22.595
14.589000,23.3681,10.2616,5.5874,26.126
14.593000,26.4958,12.0930,3.6598,29.354
14.597000,27.0183,13.0490,0.0455,30.004
14.611000,26.4483,12.4012,-2.1872,29.293
14.614000,25.7106,11.2255,-2.8405,28.198
14.615000,24.8095,9.8847,-1.9925,26.780
14.658000,24.1128,8.4805,-1.0085,25.580
14.660000,23.5219,6.9977,-0.2835,24.542
14.660000,22.8216,5.6244,0.0340,23.505
14.661000,22.2035,4.7592,0.0060,22.708
14.662000,21.6100,4.3746,-0.3201,22.051
14.662000,21.3875,4.3925,-0.6128,21.843
14.663000,21.4285,4.5998,-0.6430,21.926
14.664000,20.9587,4.6546,-0.9030,21.488
14.664000,19.8712,4.4631,-1.1317,20.398
14.665000,18.1395,4.0816,-1.2647,18.636
14.670000,16.2182,3.6430,-0.9625,16.650
14.672000,14.0039,3.5476,0.0373,14.446
14.677000,12.4353,4.0853,0.7060,13.108
14.681000,11.4281,5.2603,1.2272,12.640
14.685000,11.4763,7.0843,1.9431,13.626
14.690000,12.7701,9.5527,1.5560,16.023
14.695000,14.7644,11.8021,0.7375,18.916
14.700000,15.3764,12.6176,0.6467,19.901
14.705000,13.5310,11.5369,1.1958,17.822
14.710000,5.1396,8.4611,2.7715,10.280
14.722000,3.6740,4.6183,5.2297,7.885
14.724000,3.8566,1.3709,6.5662,7.737
14.725000,4.0430,-0.3676,7.3985,8.439
14.730000,5.7722,-0.7814,6.2018,8.508
14.774000,8.8713,-0.1007,4.0052,9.734
14.774000,12.3275,1.0667,1.2375,12.435
14.774000,14.3794,1.7211,-0.5707,14.493
14.775000,13.0113,2.3664,0.3513,13.229
14.775000,9.7284,2.7431,3.4795,10.690
14.775000,7.2917,2.2394,5.9454,9.671
14.776000,5.7985,0.7413,6.3001,8.594
14.776000,4.9541,-1.1932,5.7651,7.694
14.776000,5.1427,-2.6456,5.0667,7.689
14.779000,6.3005,-3.0816,4.2789,8.216
14.786000,7.7042,-2.6249,3.5266,8.870
14.788000,8.7715,-1.7564,3.2837,9.529
14.795000,9.1422,-1.0160,3.3022,9.773
14.798000,8.9885,-0.5496,3.9160,9.820
14.803000,9.2237,-0.1874,4.5275,10.277
14.807000,9.5675,-0.0567,4.9896,10.791
14.812000,9.3604,-0.1462,5.1266,10.673
14.817000,8.4879,-0.3328,5.8716,10.326
14.822000,8.7131,0.1845,5.2696,10.184
14.827000,9.0661,1.0947,3.1726,9.667
14.831000,10.2629,1.9410,1.8130,10.601
14.840000,10.2160,2.7475,-0.0648,10.579
14.842000,9.3721,3.6024,-1.1245,10.103
14.887000,8.2536,4.7873,-1.6187,9.678
14.889000,7.1386,6.5383,-1.8267,9.851
14.890000,6.1042,8.9644,-1.8815,11.007
14.891000,4.5224,11.7968,-2.2215,12.828
14.892000,1.7647,14.6360,-2.2553,14.914
14.894000,-1.8058,17.1782,-2.5421,17.459
14.895000,-5.5333,19.3498,-2.8507,20.326
14.897000,-8.7948,21.1445,-2.5505,23.042
14.898000,-10.9397,22.8145,-1.5889,25.352
14.900000,-11.2988,24.4786,-0.4717,26.965
14.902000,-10.7158,26.5781,-0.5549,28.662
14.903000,-11.2594,29.4548,-2.3061,31.618
14.905000,-10.8514,31.5624,-4.6543,33.699
14.910000,-11.7544,31.7506,-6.4411,34.464
14.917000,-15.1789,31.9326,-7.4087,36.125
14.921000,-20.8898,32.1038,-6.3179,38.819
14.925000,-27.0676,32.1663,-3.0400,42.149
14.932000,-31.1652,28.6939,-0.8326,42.371
14.935000,-30.9844,23.3449,-3.2483,38.930
14.940000,-29.5502,16.8205,-5.4497,34.436
14.946000,-30.0219,19.5259,-3.6388,35.997
14.950000,-32.6189,27.0672,0.8083,42.394
14.954000,-36.8822,28.9043,2.6582,46.934
14.959000,-42.6640,26.4036,5.0228,50.424
14.965000,-45.0632,23.3345,5.1573,51.008
14.969000,-42.8016,23.1781,3.2938,48.786
14.973000,-39.0924,23.3749,0.6298,45.552
14.983000,-38.2079,21.3775,-2.2157,43.838
14.985000,-39.6609,17.4716,-5.8512,43.732
14.988000,-39.9858,12.3123,-7.7864,42.557
14.993000,-41.5540,8.9387,-8.2311,43.294
15.013000,-42.0091,6.6430,-4.4719,42.766
15.014000,-40.3366,6.2346,-0.6492,40.821
15.014000,-35.3848,7.9869,1.1816,36.294
15.014000,-29.0243,10.4883,1.7788,30.912
15.018000,-24.9968,11.3343,1.4626,27.485
15.022000,-24.9802,10.2565,2.0073,27.078
15.027000,-16.7743,10.0684,0.9912,19.589
15.032000,31.9931,32.3990,20.9904,50.138
15.037000,33.4585,32.2154,15.6078,48.999
15.041000,33.7711,-14.1517,-15.9947,39.957
15.047000,34.1752,-11.0713,-39.7399,53.570
15.051000,34.6761,23.5518,-39.6133,57.674
15.056000,7.9932,30.9141,-23.5783,39.693
15.061000,-34.4085,25.7871,3.2360,43.121
15.066000,-41.8416,7.2169,5.0429,42.758
15.071000,-41.2473,-6.0938,16.1308,44.707
15.077000,-40.7581,-6.4723,38.5945,56.504
15.081000,-40.4152,-17.9815,38.5672,58.687
15.087000,-40.2441,-39.9512,-23.1846,61.263
15.091000,13.8635,-1.4334,-39.5494,41.933
15.098000,29.4538,15.2417,-2.4466,33.254
15.101000,-2.2350,6.8750,20.4813,21.720
15.106000,-19.6907,-2.7431,-13.0444,23.778
15.119000,-9.4730,0.2232,-20.4938,22.578
15.125000,-3.5102,2.5111,3.4898,5.550
15.133000,-2.5007,1.8547,15.8905,16.193
15.134000,-2.4499,0.4778,0.3834,2.525
15.136000,-1.3913,1.9614,-9.5332,9.832
15.137000,-0.6995,4.4523,-9.4169,10.440
15.170000,2.2379,4.1515,-0.1299,4.718
15.172000,1.1907,4.4440,2.6440,5.306
15.173000,-1.6180,1.6966,-1.6081,2.843
15.174000,0.9302,2.1218,0.0049,2.317
15.174000,2.1316,4.3295,-3.4125,5.911
15.175000,1.6333,6.0543,-10.5796,12.298
15.176000,1.4304,7.2604,-5.8125,9.410
15.177000,6.6488,10.4892,4.0533,13.064
15.182000,11.9847,13.5949,4.0539,18.571
15.183000,15.5893,17.5882,-5.5850,24.157
15.189000,18.7366,21.8057,-14.9604,32.409
15.194000,21.7355,24.9581,-22.6751,40.119
15.198000,24.0662,27.8831,-25.9125,45.035
15.203000,26.1824,28.5956,-26.2717,46.834
15.207000,27.6254,28.3643,-22.3908,45.487
