time,ax,ay,az,aT
0.004000,0.0698,-0.0042,-0.6735,0.677
0.005000,0.1030,0.0431,-0.5215,0.533
0.006000,0.1093,0.0657,-0.3296,0.353
0.015000,0.0721,0.0345,-0.1481,0.168
0.016000,0.0225,0.0018,0.0353,0.042
0.018000,-0.0250,-0.0453,0.2015,0.208
0.023000,-0.0296,-0.0474,0.3055,0.311
0.027000,-0.0127,-0.0671,0.3761,0.382
0.032000,-0.0051,-0.0330,0.3727,0.374
0.037000,-0.0111,-0.0574,0.3267,0.332
0.046000,-0.0356,-0.0442,0.2212,0.228
0.046000,-0.0330,-0.0652,0.0685,0.100
0.051000,-0.0276,-0.0530,-0.0982,0.115
0.058000,0.0041,-0.0312,-0.2144,0.217
0.064000,0.0261,-0.0234,-0.3090,0.311
0.066000,0.0262,-0.0150,-0.3462,0.348
0.074000,0.0332,-0.0178,-0.3549,0.357
0.082000,0.0348,-0.0366,-0.3399,0.344
0.082000,0.0408,-0.0379,-0.3012,0.306
0.085000,0.0608,-0.0457,-0.2245,0.237
0.092000,0.0613,-0.0436,-0.1673,0.183
0.096000,0.0568,-0.0530,-0.0863,0.116
0.099000,0.0642,-0.0553,-0.0390,0.093
0.107000,0.0358,-0.0673,-0.0275,0.081
0.116000,0.0173,-0.0556,0.0055,0.059
0.116000,0.0301,-0.0490,0.0098,0.058
0.120000,0.0360,-0.0401,-0.0193,0.057
0.132000,0.0779,-0.0625,0.0019,0.100
0.133000,0.0866,-0.0634,0.0231,0.110
0.135000,0.0981,-0.0574,0.0084,0.114
0.140000,0.1145,-0.0752,-0.0230,0.139
0.144000,0.1285,-0.0691,-0.0399,0.151
0.150000,0.1186,-0.0702,0.0076,0.138
0.165000,0.1302,-0.0854,0.0526,0.164
0.166000,0.1202,-0.0887,0.0975,0.178
0.167000,0.1078,-0.0824,0.1280,0.187
0.173000,0.0906,-0.0880,0.1441,0.192
0.175000,0.0855,-0.0628,0.2056,0.231
0.193000,0.0851,-0.0691,0.2121,0.239
0.194000,0.0562,-0.0661,0.2498,0.264
0.194000,0.0036,-0.0540,0.2230,0.229
0.195000,-0.0081,-0.0518,0.2083,0.215
0.198000,-0.0364,-0.0116,0.1388,0.144
0.203000,-0.0692,-0.0003,0.0718,0.100
0.208000,-0.0781,0.0135,0.0144,0.081
0.213000,-0.1111,0.0060,-0.0118,0.112
0.218000,-0.0893,0.0108,-0.0213,0.092
0.222000,-0.0726,0.0182,-0.0213,0.078
0.227000,-0.0560,0.0330,-0.0095,0.066
0.232000,-0.0392,0.0215,0.0308,0.054
0.238000,-0.0485,0.0007,0.0517,0.071
0.242000,-0.0338,-0.0082,0.0843,0.091
0.247000,-0.0238,0.0042,0.1119,0.115
0.251000,-0.0494,-0.0123,0.1086,0.120
0.261000,-0.0723,-0.0171,0.0840,0.112
0.261000,-0.0761,-0.0316,0.0336,0.089
0.266000,-0.0539,0.0014,-0.0022,0.054
0.282000,-0.0535,0.0032,-0.0400,0.067
0.283000,-0.0486,0.0098,-0.0775,0.092
0.284000,-0.0228,-0.0050,-0.0909,0.094
0.288000,-0.0234,-0.0242,-0.0972,0.103
0.291000,-0.0100,-0.0170,-0.1035,0.105
0.297000,0.0009,-0.0120,-0.0813,0.082
0.301000,0.0167,-0.0020,-0.0854,0.087
0.318000,0.0254,-0.0204,-0.0588,0.067
0.320000,0.0604,-0.0576,-0.0204,0.086
0.320000,0.0930,-0.0495,0.0342,0.111
0.321000,0.0947,-0.0701,0.0718,0.138
0.328000,0.0942,-0.0670,0.0498,0.126
0.330000,0.0821,-0.0499,0.0422,0.105
0.335000,0.0985,-0.0568,0.0182,0.115
0.345000,0.0909,-0.0400,0.0062,0.100
0.346000,0.1071,-0.0685,-0.0103,0.127
0.349000,0.0992,-0.0564,-0.0315,0.118
0.361000,0.0864,-0.0587,-0.0359,0.110
0.362000,0.0879,-0.0465,-0.0498,0.111
0.364000,0.0822,-0.0344,-0.0398,0.098
0.375000,0.1096,-0.0341,-0.0134,0.116
0.375000,0.1155,-0.0432,0.0128,0.124
0.378000,0.1141,-0.0262,0.0506,0.128
0.383000,0.1127,-0.0453,0.0622,0.136
0.393000,0.0947,-0.0718,0.0619,0.134
0.394000,0.1124,-0.0367,0.0213,0.120
0.398000,0.0805,-0.0235,-0.0212,0.086
0.428000,0.0538,-0.0177,-0.0848,0.102
0.430000,0.0348,-0.0069,-0.1597,0.164
0.430000,0.0279,-0.0031,-0.2079,0.210
0.431000,0.0378,0.0177,-0.2345,0.238
0.431000,0.0216,0.0032,-0.2207,0.222
0.431000,0.0104,-0.0226,-0.1549,0.157
0.433000,0.0209,-0.0406,-0.0589,0.075
0.440000,0.0483,-0.0607,0.0291,0.083
0.442000,0.0542,-0.0426,0.0618,0.093
0.447000,0.0362,-0.0320,0.0825,0.096
0.452000,0.0347,-0.0360,0.0888,0.102
0.457000,0.0021,-0.0499,0.0595,0.078
0.461000,-0.0188,-0.0710,0.0353,0.082
0.467000,-0.0396,-0.0469,-0.0147,0.063
0.471000,-0.0271,-0.0395,-0.0502,0.069
0.476000,-0.0195,-0.0344,-0.0830,0.092
0.481000,-0.0048,-0.0268,-0.0847,0.089
0.487000,0.0029,-0.0571,-0.1149,0.128
0.492000,-0.0081,-0.0631,-0.1118,0.129
0.496000,-0.0020,-0.0545,-0.1349,0.145
0.506000,0.0161,-0.0246,-0.1150,0.119
0.507000,0.0129,-0.0280,-0.0812,0.087
0.513000,0.0147,-0.0410,-0.0475,0.064
0.536000,0.0167,-0.0256,-0.0189,0.036
0.538000,0.0142,-0.0225,-0.0118,0.029
0.538000,0.0263,-0.0175,-0.0236,0.039
0.539000,0.0173,-0.0200,-0.0566,0.062
0.539000,0.0206,0.0057,-0.1106,0.113
0.540000,0.0146,0.0144,-0.1855,0.187
0.546000,0.0138,0.0086,-0.2644,0.265
0.550000,0.0203,0.0172,-0.3261,0.327
0.559000,0.0293,0.0355,-0.3945,0.397
0.560000,0.0386,0.0587,-0.4244,0.430
0.564000,0.0315,0.0704,-0.4115,0.419
0.570000,0.0487,0.0847,-0.3679,0.381
0.574000,0.0025,0.0942,-0.2868,0.302
0.579000,-0.0398,0.0918,-0.1826,0.208
0.586000,-0.0830,0.0889,-0.0578,0.135
0.588000,-0.1339,0.1093,0.0589,0.183
0.594000,-0.1756,0.0977,0.1773,0.268
0.600000,-0.2106,0.1229,0.2429,0.344
0.607000,-0.2439,0.1227,0.2609,0.378
0.608000,-0.2566,0.1304,0.2886,0.408
0.612000,-0.2608,0.1199,0.2691,0.394
0.619000,-0.2591,0.1529,0.1459,0.334
0.623000,-0.3084,0.1450,-0.0618,0.346
0.628000,-0.3978,0.1721,-0.2927,0.523
0.636000,-0.4086,0.2328,-0.4969,0.684
0.640000,-0.2314,0.2511,-0.7009,0.780
0.643000,-0.0867,0.2371,-0.7974,0.836
0.652000,0.0111,0.1817,-0.8535,0.873
0.654000,0.0286,0.1643,-0.9101,0.925
0.660000,0.0279,0.1683,-0.9480,0.963
0.663000,0.0493,0.1938,-0.9149,0.937
0.668000,0.0781,0.1812,-0.8946,0.916
0.675000,0.0544,0.1380,-0.8273,0.840
0.677000,0.0139,0.1025,-0.5913,0.600
0.685000,-0.0455,0.0645,-0.3110,0.321
0.687000,-0.0521,0.0190,-0.1823,0.191
0.690000,-0.0464,0.0018,0.0675,0.082
0.695000,-0.0854,-0.0602,0.3621,0.377
0.705000,-0.1183,-0.0837,0.6083,0.625
0.706000,-0.1065,-0.1387,0.8973,0.914
0.710000,-0.0614,-0.2030,1.1834,1.202
0.716000,0.0198,-0.2517,1.3834,1.406
0.720000,0.0940,-0.2835,1.4379,1.469
0.725000,0.1827,-0.2717,1.3566,1.396
0.730000,0.2832,-0.2735,1.2568,1.317
0.735000,0.3547,-0.2761,1.1574,1.242
0.740000,0.4330,-0.2898,1.0562,1.178
0.745000,0.4512,-0.2834,0.9531,1.092
0.752000,0.4452,-0.2632,0.7643,0.923
0.757000,0.4363,-0.2430,0.6356,0.808
0.760000,0.3887,-0.2565,0.5501,0.721
0.768000,0.3527,-0.2484,0.5077,0.666
0.775000,0.3141,-0.2162,0.4271,0.573
0.778000,0.2920,-0.1695,0.3801,0.508
0.779000,0.1980,-0.1491,0.3427,0.423
0.785000,0.1349,-0.1358,0.3125,0.366
0.789000,0.0930,-0.1439,0.2966,0.343
0.793000,0.0724,-0.1353,0.3071,0.343
0.798000,0.0568,-0.1506,0.3151,0.354
0.803000,0.0486,-0.1442,0.2682,0.308
0.808000,0.0550,-0.1169,0.2574,0.288
0.816000,0.0690,-0.1145,0.2420,0.276
0.819000,0.0983,-0.1047,0.2481,0.287
0.823000,0.1142,-0.1383,0.2400,0.300
0.828000,0.1336,-0.1103,0.2321,0.290
0.836000,0.1564,-0.1165,0.2028,0.281
0.838000,0.1324,-0.1066,0.1737,0.243
0.862000,0.0926,-0.1141,0.1115,0.184
0.863000,0.0563,-0.0792,0.0423,0.106
0.864000,0.0279,-0.0781,-0.0124,0.084
0.865000,-0.0070,-0.0678,-0.0741,0.101
0.865000,-0.0436,-0.0431,-0.1189,0.134
0.868000,-0.0680,-0.0542,-0.1613,0.183
0.873000,-0.0803,-0.0650,-0.1679,0.197
0.877000,-0.0901,-0.0516,-0.1578,0.189
0.882000,-0.1072,-0.0524,-0.1239,0.172
0.893000,-0.1174,-0.0362,-0.1068,0.163
0.894000,-0.1470,-0.0630,-0.0730,0.176
0.896000,-0.1412,-0.0514,-0.0202,0.152
0.901000,-0.1356,-0.0447,0.0182,0.144
0.906000,-0.1823,-0.0739,0.1426,0.243
0.913000,-0.1321,-0.0577,-0.0080,0.144
0.916000,-0.0508,0.0062,-0.0341,0.061
0.920000,-0.0272,0.0170,-0.0839,0.090
0.925000,-0.0591,-0.0444,-0.1383,0.157
0.931000,-0.0985,-0.0650,-0.1138,0.164
0.939000,-0.0804,-0.0253,-0.1110,0.139
0.940000,-0.0379,0.0242,-0.1345,0.142
0.951000,-0.0214,0.0239,-0.1223,0.126
0.952000,-0.0258,-0.0141,-0.1293,0.133
0.958000,-0.0127,0.0153,-0.1722,0.173
0.976000,0.0411,0.0262,-0.0958,0.107
0.977000,0.0256,-0.0016,-0.0600,0.065
0.978000,0.0032,0.0279,0.0068,0.029
0.978000,-0.0709,0.0403,0.1644,0.184
0.980000,-0.1101,0.0650,0.1091,0.168
0.984000,-0.1421,0.0824,0.0897,0.187
0.988000,-0.2084,0.0586,0.0298,0.219
0.995000,-0.2735,0.0200,0.0227,0.275
1.000000,-0.2631,0.0458,0.0300,0.269
1.003000,-0.2266,0.0596,0.0206,0.235
1.008000,-0.1914,0.1298,-0.0126,0.232
1.015000,-0.1873,0.1283,-0.0622,0.235
1.018000,-0.2165,0.0796,-0.0948,0.249
1.022000,-0.2357,0.0648,-0.0608,0.252
1.030000,-0.2284,0.0789,-0.0414,0.245
1.034000,-0.2019,0.0934,-0.0317,0.225
1.038000,-0.1612,0.1081,-0.0293,0.196
1.042000,-0.1257,0.0967,0.0229,0.160
1.049000,-0.1309,0.0404,0.0342,0.141
1.053000,-0.1482,0.0226,0.0099,0.150
1.057000,-0.1064,0.0642,0.0285,0.128
1.066000,-0.0961,0.0722,0.0754,0.142
1.067000,-0.1453,0.0184,0.0721,0.163
1.073000,-0.1729,0.0148,0.1068,0.204
1.086000,-0.1029,0.0655,0.0512,0.132
1.087000,-0.0902,0.0209,-0.0444,0.103
1.088000,-0.0728,-0.0254,-0.1321,0.153
1.092000,-0.0769,-0.0376,-0.2073,0.224
1.098000,-0.0621,-0.0089,-0.2274,0.236
1.101000,-0.1543,-0.0558,-0.1882,0.250
1.106000,-0.0822,0.0049,-0.1589,0.179
1.110000,0.0324,0.0629,-0.1560,0.171
1.117000,0.0563,0.0236,-0.1011,0.118
1.120000,0.0521,-0.0032,-0.1059,0.118
1.125000,0.0622,0.0084,-0.1179,0.134
1.132000,-0.0135,-0.0203,-0.0847,0.088
1.135000,0.0081,0.0105,-0.0091,0.016
1.139000,0.1143,0.0834,0.0090,0.142
1.146000,0.1551,0.0389,0.0247,0.162
1.150000,0.1480,-0.0196,0.1044,0.182
1.154000,0.1250,-0.0351,0.0933,0.160
1.160000,0.1098,-0.0196,0.0585,0.126
1.169000,0.1522,-0.0017,0.0573,0.163
1.170000,0.1711,0.0184,-0.0697,0.186
1.178000,0.0425,-0.0567,-0.0105,0.072
1.180000,0.0452,0.0514,-0.0443,0.082
1.186000,0.1446,0.1418,0.1998,0.284
1.189000,0.1724,0.0769,0.2047,0.278
1.196000,0.0934,-0.0279,0.0292,0.102
1.199000,0.0858,0.0154,0.0165,0.089
1.204000,0.0445,0.0438,0.1203,0.136
1.215000,0.0409,0.0789,0.1971,0.216
1.217000,0.0343,0.0802,0.2187,0.235
1.220000,0.0133,0.0358,0.2119,0.215
1.240000,0.0016,0.0246,0.1956,0.197
1.241000,-0.0246,0.0109,0.1369,0.139
1.242000,-0.0887,0.0236,0.1402,0.168
1.242000,-0.0005,0.0855,0.1532,0.175
1.243000,0.0206,0.0819,0.1188,0.146
1.247000,0.0322,0.0473,0.0848,0.102
1.252000,0.0131,0.0510,0.0581,0.078
1.259000,-0.0224,0.0378,0.0318,0.054
1.261000,-0.0243,0.0529,0.0365,0.069
1.267000,-0.0215,0.0343,0.0698,0.081
1.271000,-0.0090,0.0484,0.0935,0.106
1.277000,-0.0296,0.0477,0.0530,0.077
1.282000,-0.0071,0.0537,0.0320,0.063
1.287000,-0.0202,0.0283,-0.0362,0.050
1.293000,-0.0283,0.0241,-0.0966,0.104
1.297000,-0.0076,0.0176,-0.1779,0.179
1.303000,-0.0249,0.0138,-0.2490,0.251
1.309000,-0.0207,0.0222,-0.3434,0.345
1.313000,0.0095,0.0386,-0.4111,0.413
1.316000,0.0272,0.0367,-0.4310,0.433
1.321000,0.0444,0.0333,-0.3845,0.388
1.326000,0.0042,-0.0026,-0.3125,0.313
1.330000,-0.0051,-0.0066,-0.2222,0.222
1.335000,-0.0238,-0.0076,-0.1518,0.154
1.344000,-0.0283,-0.0179,-0.0608,0.069
1.345000,-0.0400,-0.0352,0.0248,0.059
1.350000,-0.0539,-0.0455,0.1049,0.126
1.361000,-0.0770,-0.0658,0.1870,0.213
1.362000,-0.0806,-0.0746,0.1996,0.228
1.365000,-0.0815,-0.0744,0.1839,0.214
1.369000,-0.0586,-0.0465,0.1850,0.200
1.374000,-0.0310,-0.0550,0.1554,0.168
1.379000,-0.0088,-0.0522,0.1073,0.120
1.384000,-0.0037,-0.0499,0.0264,0.057
1.389000,-0.0061,-0.0551,-0.0252,0.061
1.394000,-0.0062,-0.0579,-0.0622,0.085
1.399000,0.0269,-0.0510,-0.0776,0.097
1.403000,0.0432,-0.0487,-0.0976,0.117
1.410000,0.0593,-0.0368,-0.1317,0.149
1.415000,0.0516,-0.0366,-0.1632,0.175
1.418000,0.0651,-0.0170,-0.2065,0.217
1.424000,0.0667,-0.0185,-0.2518,0.261
1.429000,0.0776,-0.0028,-0.2566,0.268
1.433000,0.1002,-0.0058,-0.2614,0.280
1.439000,0.1178,-0.0011,-0.2592,0.285
1.448000,0.0807,-0.0031,-0.2406,0.254
1.449000,0.0653,-0.0046,-0.1842,0.195
1.452000,0.0713,-0.0035,-0.1426,0.160
1.468000,0.0726,-0.0045,-0.1323,0.151
1.469000,0.0572,-0.0219,-0.0889,0.108
1.471000,0.0444,-0.0011,-0.0411,0.060
1.478000,0.0509,0.0054,-0.0317,0.060
1.479000,0.0385,0.0024,-0.0010,0.039
1.482000,0.0333,-0.0197,0.0366,0.053
1.486000,0.0188,-0.0109,0.0478,0.052
1.492000,0.0019,-0.0261,0.0637,0.069
1.497000,0.0279,-0.0153,0.0913,0.097
1.502000,0.0251,0.0023,0.1449,0.147
1.508000,0.0245,0.0027,0.1412,0.143
1.512000,0.0166,-0.0258,0.1258,0.130
1.516000,0.0133,-0.0308,0.0916,0.098
1.522000,-0.0114,-0.0383,0.0222,0.046
1.525000,0.0236,-0.0218,-0.0206,0.038
1.531000,0.0702,-0.0078,-0.0678,0.098
1.537000,0.1141,-0.0197,-0.0672,0.134
1.540000,0.1080,0.0184,-0.0904,0.142
1.546000,0.1185,0.0186,-0.1111,0.164
1.550000,0.0862,-0.0096,-0.0795,0.118
1.556000,0.0707,-0.0113,-0.0742,0.103
1.563000,0.0458,-0.0176,-0.0453,0.067
1.566000,0.0401,-0.0095,-0.0190,0.045
1.571000,0.0344,0.0221,-0.0452,0.061
1.583000,-0.0093,0.0656,-0.0711,0.097
1.587000,-0.0337,0.0588,-0.0803,0.105
1.599000,-0.0486,0.0451,-0.0846,0.107
1.600000,-0.0516,0.0461,-0.0558,0.089
1.601000,-0.0309,0.0469,-0.0390,0.068
1.602000,-0.0269,0.0594,-0.0437,0.078
1.616000,-0.0062,0.0548,-0.0388,0.067
1.618000,0.0214,0.0379,-0.0433,0.061
1.619000,0.0324,0.0712,-0.0526,0.094
1.619000,0.0197,0.0735,-0.0831,0.113
1.624000,0.0191,0.0758,-0.0873,0.117
1.628000,0.0043,0.0428,-0.1034,0.112
1.634000,0.0180,0.0506,-0.0719,0.090
1.639000,0.0363,0.0443,-0.0574,0.081
1.643000,0.0281,0.0573,-0.0810,0.103
1.649000,0.0362,0.0632,-0.0666,0.099
1.652000,0.0413,0.0574,-0.0214,0.074
1.657000,0.0341,0.0352,0.0399,0.063
1.662000,0.0007,0.0133,0.0628,0.064
1.666000,-0.0251,0.0105,0.0854,0.090
1.672000,-0.0075,0.0028,0.1530,0.153
1.676000,-0.0036,-0.0074,0.1964,0.197
1.683000,0.0035,-0.0061,0.2206,0.221
1.693000,0.0161,-0.0315,0.2305,0.233
1.695000,0.0057,-0.0383,0.1930,0.197
1.697000,0.0505,-0.0123,0.1417,0.151
1.701000,0.0810,-0.0105,0.1194,0.145
1.706000,0.0851,-0.0310,0.0429,0.100
1.711000,0.0986,-0.0401,0.0052,0.107
1.715000,0.1240,-0.0181,-0.0370,0.131
1.721000,0.1491,-0.0341,-0.0931,0.179
1.725000,0.1859,-0.0143,-0.1180,0.221
1.730000,0.1938,-0.0016,-0.1569,0.249
1.735000,0.1919,-0.0172,-0.2050,0.281
1.740000,0.1636,0.0031,-0.2647,0.311
1.745000,0.1496,-0.0022,-0.3168,0.350
1.750000,0.1213,0.0096,-0.3664,0.386
1.756000,0.1241,-0.0021,-0.3918,0.411
1.761000,0.1247,0.0173,-0.4218,0.440
1.766000,0.1137,0.0354,-0.4281,0.444
1.773000,0.0983,0.0159,-0.4274,0.439
1.777000,0.0784,0.0258,-0.3723,0.381
1.780000,0.0944,0.0383,-0.2773,0.295
1.786000,0.1011,0.0223,-0.1547,0.186
1.790000,0.1129,-0.0010,-0.0568,0.126
1.794000,0.1229,0.0016,0.0001,0.123
1.799000,0.1264,-0.0015,0.0283,0.130
1.805000,0.1569,-0.0127,0.1349,0.207
1.811000,0.1768,0.0105,0.1483,0.231
1.815000,0.1887,0.0250,0.0980,0.214
1.822000,0.1574,0.0568,0.0604,0.178
1.823000,0.1095,0.0559,-0.0168,0.124
1.829000,0.0809,0.0537,-0.0692,0.119
1.833000,0.0406,0.0430,-0.1230,0.137
1.837000,-0.0798,0.0211,-0.0335,0.089
1.844000,-0.0736,0.0241,0.0321,0.084
1.848000,0.0596,0.0350,-0.1583,0.173
1.854000,0.1384,0.1653,-0.4059,0.460
1.857000,0.2667,0.1525,-0.0668,0.314
1.862000,0.4454,-0.0482,0.0498,0.451
1.868000,0.4617,-0.1789,0.1051,0.506
1.875000,0.5148,-0.1619,0.1471,0.559
1.878000,0.5246,-0.1338,0.1974,0.576
1.883000,0.5580,-0.1712,0.2326,0.628
1.887000,0.5487,-0.3215,0.1702,0.658
1.891000,0.6801,-0.4178,0.1702,0.816
1.897000,0.8660,-0.4322,0.3131,1.017
1.902000,0.9538,-0.4510,0.3845,1.123
1.907000,0.9697,-0.5365,0.4758,1.206
1.912000,1.0017,-0.6551,0.4330,1.273
1.924000,1.2291,-0.7096,0.4341,1.484
1.926000,1.3188,-0.8387,0.4812,1.635
1.951000,1.3108,-0.9520,0.4817,1.690
1.952000,1.3313,-1.0804,0.7036,1.853
1.953000,1.3275,-1.1952,0.7387,1.933
1.963000,1.4588,-1.2894,0.6928,2.067
1.965000,1.7269,-1.2410,0.8748,2.299
1.966000,1.8896,-1.2867,0.8214,2.429
1.966000,2.0033,-1.3645,0.6790,2.517
1.967000,2.0913,-1.5002,0.5128,2.624
1.978000,2.0427,-1.7648,0.3228,2.719
1.979000,2.2356,-1.7601,0.2494,2.856
1.980000,2.5786,-1.6715,0.0938,3.074
1.985000,2.8099,-1.7625,-0.1184,3.319
1.986000,3.1325,-1.8046,-0.1838,3.620
1.990000,3.4381,-1.8254,-0.2727,3.902
1.995000,3.6763,-1.8390,-0.4443,4.135
2.004000,3.7820,-1.9383,-0.6865,4.305
2.005000,3.8144,-2.1148,-0.8683,4.447
2.010000,3.5591,-2.2886,-0.9310,4.333
2.023000,2.0185,-2.8202,-0.7564,3.550
2.025000,-0.7871,-3.4324,-1.1491,3.704
2.025000,-1.5850,-2.8594,-1.5293,3.609
2.028000,1.8253,-0.7513,-1.4840,2.470
2.037000,3.8487,0.3087,-1.6501,4.199
2.038000,3.0966,-0.2366,-2.3919,3.920
2.043000,1.2982,-1.2313,-1.4636,2.312
2.058000,0.5436,-1.6832,-1.6430,2.414
2.059000,0.7497,-1.3572,-2.6498,3.070
2.059000,1.2423,-0.6283,-3.3014,3.583
2.062000,1.7229,-0.1976,-3.7446,4.127
2.070000,1.7278,-0.3272,-4.0158,4.384
2.073000,1.4701,-0.6391,-4.0217,4.329
2.077000,1.1877,-0.8347,-4.0545,4.306
2.087000,1.1167,-0.7539,-4.1825,4.394
2.087000,1.1369,-0.5543,-3.9800,4.176
2.096000,1.1281,-0.5684,-3.8663,4.067
2.096000,1.0973,-0.6003,-3.8134,4.013
2.103000,0.9997,-0.6321,-3.6763,3.862
2.106000,0.9908,-0.7188,-3.5488,3.754
2.111000,1.1616,-0.8247,-3.6582,3.926
2.117000,2.8902,-0.6506,-8.2110,8.729
2.120000,2.6930,-0.6837,-10.2855,10.654
2.126000,1.0914,-1.4993,-7.4464,7.674
2.140000,0.8441,-1.7678,-5.5878,5.921
2.142000,0.4067,-1.9096,-3.2354,3.779
2.143000,0.2820,-1.8240,-1.3664,2.296
2.145000,0.4987,-1.5246,-0.5046,1.682
2.152000,0.5759,-1.3492,-0.4682,1.540
2.155000,0.4490,-1.5105,-0.7335,1.738
2.160000,0.3040,-1.7432,-1.0324,2.049
2.168000,0.3033,-1.9326,-1.1356,2.262
2.170000,0.2981,-1.9002,-1.0000,2.168
2.175000,0.2880,-1.9983,-0.0302,2.019
2.185000,0.1259,-2.2537,0.9041,2.431
2.186000,0.0155,-2.4305,1.6190,2.920
2.189000,-0.2222,-2.3913,2.1697,3.237
2.215000,-0.5126,-2.1036,2.3028,3.161
2.216000,-0.5373,-1.5539,2.1185,2.682
2.217000,-0.5997,-1.0386,1.7800,2.146
2.218000,-0.6017,-0.7008,1.3257,1.616
2.219000,-0.5573,-0.6450,0.8918,1.234
2.220000,-0.4760,-0.7843,0.3087,0.968
2.223000,-0.3386,-0.9287,-0.0042,0.989
2.231000,-0.3385,-1.1346,-0.6124,1.333
2.235000,-0.2536,-1.2550,-1.2549,1.793
2.237000,0.0495,-1.0453,-0.7607,1.294
2.243000,0.5191,-0.6266,-0.2614,0.855
2.248000,0.8190,-0.2752,-0.5434,1.021
2.253000,0.8300,-0.0233,-0.6974,1.084
2.257000,0.5468,0.0576,-1.0030,1.144
2.263000,0.1652,0.0299,-1.5595,1.569
2.268000,-0.2296,0.0626,-2.0549,2.069
2.272000,-0.6388,0.0477,-2.5747,2.653
2.280000,-0.9796,0.0418,-3.0534,3.207
2.282000,-1.2885,0.0135,-3.3583,3.597
2.290000,-1.4292,0.0630,-3.4319,3.718
2.291000,-1.5428,0.1347,-3.3691,3.708
2.299000,-1.5577,0.1900,-3.0900,3.466
2.306000,-1.4520,0.1235,-2.6529,3.027
2.306000,-1.2712,0.0137,-2.5824,2.878
2.313000,-1.1228,-0.1799,-2.4976,2.744
2.317000,-0.9805,-0.3928,-2.1905,2.432
2.324000,-0.8322,-0.4866,-1.8444,2.081
2.327000,-0.3337,-0.4042,-1.8892,1.961
2.331000,-0.0391,-0.1590,-1.8684,1.876
2.336000,0.3465,0.1040,-2.4711,2.497
2.341000,0.6084,0.3022,-3.1581,3.230
2.345000,0.8878,0.4438,-3.5802,3.715
2.350000,1.2466,0.5267,-3.9737,4.198
2.356000,1.5488,0.5206,-3.3404,3.719
2.362000,1.6394,0.2511,-2.1795,2.739
2.365000,1.7481,0.0454,-1.2498,2.149
2.370000,1.8006,-0.2095,-0.7311,1.955
2.375000,1.6124,-0.4643,-0.1439,1.684
2.380000,1.2527,-0.5815,0.3539,1.426
2.385000,0.8910,-0.5842,0.7906,1.327
2.389000,0.4455,-0.5143,1.1202,1.311
2.396000,0.2528,-0.5813,0.8329,1.047
2.399000,0.3097,-0.4458,-0.1239,0.557
2.404000,0.5825,0.1096,-0.7634,0.967
2.411000,0.9181,0.6765,-0.8580,1.427
2.414000,1.1640,0.4669,-0.8219,1.500
2.419000,1.4350,0.1533,-0.6868,1.598
2.424000,1.5611,-0.2573,-0.7441,1.748
2.429000,1.5592,-0.8272,-0.8739,1.970
2.433000,1.5082,-1.4273,-1.0879,2.344
2.438000,1.3893,-2.0097,-0.7021,2.542
2.444000,1.3436,-2.5464,-0.1745,2.884
2.450000,1.4380,-3.1242,0.1018,3.441
2.454000,1.5094,-3.5620,-0.6178,3.918
2.457000,1.4135,-3.9987,-1.9266,4.658
2.463000,1.5683,-4.0459,-2.4254,4.971
2.468000,2.2966,-3.6409,-1.8092,4.669
2.472000,3.0226,-3.3378,-1.1091,4.638
2.477000,3.5197,-3.0906,-0.6206,4.725
2.482000,3.7624,-2.8438,-0.4865,4.741
2.487000,3.9183,-2.6619,-0.6799,4.785
2.491000,3.8915,-2.6688,-0.6728,4.766
2.497000,3.6465,-2.7736,-0.3359,4.594
2.501000,3.3412,-2.7971,-0.0463,4.358
2.507000,3.0474,-2.6771,0.0057,4.056
2.512000,2.6917,-2.5735,0.0579,3.724
2.517000,2.1765,-2.4093,0.1229,3.249
2.522000,1.7993,-2.0190,0.1035,2.706
2.526000,1.6706,-1.5953,-0.0550,2.311
2.530000,1.7307,-1.2550,-0.1444,2.143
2.535000,1.7446,-1.0895,-0.1094,2.060
2.542000,1.5341,-1.0476,0.1410,1.863
2.545000,1.4419,-0.9949,0.1935,1.763
2.550000,1.5595,-0.9596,0.1012,1.834
2.555000,1.6291,-1.0414,-0.1220,1.937
2.560000,1.4623,-1.2111,-0.2062,1.910
2.565000,1.1672,-1.4230,-0.1188,1.844
2.570000,0.9370,-1.5962,-0.3358,1.881
2.575000,0.7855,-1.7667,-0.8293,2.104
2.580000,0.6284,-1.9536,-1.2970,2.428
2.585000,0.4078,-2.0683,-1.2002,2.426
2.589000,0.1092,-2.1567,-0.8458,2.319
2.595000,-0.2068,-2.1887,-0.8103,2.343
2.599000,-0.4065,-2.0976,-0.7974,2.281
2.604000,-0.4472,-2.0126,-0.8024,2.212
2.610000,-0.5174,-2.0100,-0.5259,2.141
2.614000,-0.7192,-2.0874,-0.3040,2.229
2.619000,-0.9832,-2.1160,-0.2504,2.347
2.625000,-1.2899,-2.0384,-0.2690,2.427
2.629000,-1.4577,-1.8238,-0.5268,2.393
2.634000,-1.3528,-1.5081,-0.7516,2.161
2.638000,-1.3144,-1.1673,-0.6950,1.890
2.645000,-1.4274,-0.8059,-0.4596,1.702
2.649000,-1.5788,-0.4288,-0.3652,1.676
2.654000,-1.6372,-0.0506,-0.2486,1.657
2.660000,-1.6786,0.3598,-0.0399,1.717
2.664000,-1.8128,0.7424,0.0919,1.961
2.668000,-1.8939,1.0968,0.1045,2.191
2.675000,-1.8740,1.3322,0.0963,2.301
2.677000,-1.9137,1.3384,0.2135,2.345
2.682000,-1.9509,1.2181,0.4036,2.335
2.688000,-1.9573,1.1243,0.3492,2.284
2.692000,-1.8663,1.1092,-0.0359,2.171
2.697000,-1.8242,1.1062,-0.2505,2.148
2.702000,-2.0605,0.9720,-0.0686,2.279
2.708000,-2.2836,0.9313,0.0285,2.466
2.711000,-2.3170,0.9891,-0.1989,2.527
2.716000,-2.3353,1.1005,-0.4799,2.626
2.723000,-2.2978,1.1939,-0.6571,2.672
2.726000,-2.2211,1.2793,-0.8033,2.686
2.731000,-2.1414,1.3688,-0.7571,2.652
2.736000,-2.1226,1.3983,-0.6860,2.633
2.742000,-2.1005,1.4319,-0.4872,2.588
2.746000,-2.1010,1.4984,-0.2990,2.598
2.751000,-2.1672,1.7099,-0.2047,2.768
2.756000,-2.2778,1.9920,-0.1944,3.032
2.762000,-2.3032,2.2894,-0.1380,3.250
2.766000,-2.3609,2.5563,0.0559,3.480
2.770000,-2.3697,2.7111,0.2544,3.610
2.776000,-2.3515,2.7870,0.5419,3.687
2.782000,-2.3874,2.7599,0.7067,3.717
2.785000,-2.4254,2.7392,0.7520,3.735
2.793000,-2.4229,2.6769,0.9410,3.731
2.795000,-2.2828,2.6588,0.9053,3.619
2.801000,-2.0596,2.6276,0.8464,3.444
2.819000,-1.8558,2.6434,1.1297,3.422
2.822000,-1.6617,2.7205,1.0303,3.350
2.823000,-1.3889,2.8403,0.5834,3.215
2.824000,-1.1179,2.9796,0.4452,3.213
2.825000,-0.9799,3.0407,0.6933,3.269
2.829000,-0.9528,3.0814,0.8471,3.335
2.833000,-0.8928,3.1185,0.7556,3.331
2.839000,-0.7279,3.2478,0.8421,3.433
2.843000,-0.6061,3.3499,0.8265,3.503
2.848000,-0.5943,3.4990,0.7661,3.631
2.855000,-0.7058,3.6737,0.8451,3.835
2.858000,-0.7494,3.8810,0.7200,4.018
2.862000,-0.7760,4.0729,0.6675,4.200
2.869000,-0.8573,4.2041,0.7257,4.352
2.873000,-0.9266,4.2673,0.6652,4.417
2.878000,-1.0189,4.3199,0.7311,4.498
2.882000,-1.0332,4.2895,0.8993,4.503
2.892000,-1.0000,4.2073,0.9366,4.425
2.897000,-1.1329,4.0679,0.8174,4.301
2.899000,-1.3247,3.8926,0.8743,4.204
2.922000,-1.3887,3.8502,0.9064,4.192
2.924000,-1.3872,3.7062,0.5460,3.995
2.925000,-1.4095,3.4438,0.4625,3.750
2.925000,-1.4013,3.1368,0.7249,3.511
2.926000,-1.3816,2.7948,0.4993,3.157
2.927000,-1.3131,2.5084,0.1849,2.837
2.932000,-1.2291,2.2324,0.2568,2.561
2.938000,-1.1850,2.0431,0.4015,2.396
2.941000,-1.2666,1.9884,0.0906,2.359
2.945000,-1.3332,1.9199,-0.3344,2.361
2.950000,-1.2323,1.9193,-0.3605,2.309
2.956000,-1.1568,1.9866,-0.0643,2.300
2.960000,-1.2038,2.1172,0.1506,2.440
2.965000,-1.2508,2.4403,0.1646,2.747
2.971000,-1.0580,2.8651,-0.0170,3.054
2.977000,-0.9185,3.2034,0.0860,3.334
2.980000,-0.8935,3.4576,0.4624,3.601
2.992000,-0.9033,3.5513,0.5104,3.700
2.995000,-0.9310,3.5373,0.2953,3.670
2.999000,-0.9339,3.4634,0.1447,3.590
3.018000,-0.8979,3.3082,0.1037,3.429
3.020000,-0.8546,3.1241,0.1627,3.243
3.020000,-0.8236,3.0021,0.1989,3.119
3.021000,-0.8244,2.8389,-0.0234,2.956
3.021000,-0.6596,2.6583,-0.0715,2.740
3.024000,-0.4520,2.4554,0.1160,2.499
3.029000,-0.3162,2.2806,-0.0302,2.303
3.033000,-0.2903,2.1460,-0.2974,2.186
3.038000,-0.4777,2.0085,-0.2580,2.081
3.044000,-0.6349,1.8560,-0.3453,1.992
3.049000,-0.6960,1.6716,-0.4040,1.855
3.054000,-0.7353,1.4746,-0.0733,1.649
3.060000,-0.7722,1.3651,0.0831,1.571
3.063000,-0.6487,1.3838,0.3071,1.559
3.068000,-0.4505,1.3992,0.3769,1.518
3.073000,-0.3828,1.2992,0.2619,1.380
3.077000,-0.3828,1.1940,0.1583,1.264
3.082000,-0.3590,1.1510,-0.0563,1.207
3.088000,-0.3145,1.1365,-0.1518,1.189
3.092000,-0.2985,1.1268,0.0430,1.166
3.097000,-0.3199,1.1486,-0.0212,1.192
3.118000,-0.3595,1.1970,-0.3541,1.299
3.119000,-0.3433,1.2556,-0.4495,1.377
3.120000,-0.2093,1.3482,-0.1453,1.372
3.122000,-0.1729,1.4724,0.0280,1.483
3.123000,0.0031,1.6641,-0.0536,1.665
3.127000,0.3716,1.9520,-0.1940,1.996
3.132000,0.6660,2.1021,-0.2812,2.223
3.141000,0.6889,2.0933,-0.3203,2.227
3.143000,0.7091,2.1625,-0.1965,2.284
3.146000,0.8140,2.2541,-0.0718,2.398
3.151000,0.8561,2.3109,-0.2111,2.473
3.159000,1.0505,2.3949,-0.2510,2.627
3.161000,1.2925,2.2841,0.1428,2.628
3.168000,1.3339,1.9186,0.5909,2.410
3.172000,1.2253,1.5091,0.4267,1.990
3.178000,1.0478,1.2133,-0.0101,1.603
3.180000,0.7916,0.9570,-0.2207,1.261
3.187000,0.5877,0.7570,0.0264,0.959
3.189000,0.4643,0.6226,0.2338,0.811
3.194000,0.2993,0.5346,0.0766,0.617
3.206000,0.1782,0.4618,-0.1346,0.513
3.209000,0.0607,0.3971,-0.2465,0.471
3.209000,0.0317,0.3071,-0.1430,0.340
3.217000,0.0841,0.2419,-0.0780,0.268
3.224000,0.1586,0.2519,0.0539,0.302
3.225000,0.2145,0.2651,0.1951,0.393
3.229000,0.2640,0.1907,0.2574,0.415
3.233000,0.1702,0.0431,0.2385,0.296
3.238000,0.1410,-0.1345,0.1887,0.271
3.244000,0.2091,-0.2657,0.0721,0.346
3.248000,0.4034,-0.3456,0.0081,0.531
3.253000,0.5977,-0.3839,-0.0084,0.710
3.258000,0.8073,-0.3640,0.1780,0.903
3.263000,0.9716,-0.2000,0.2106,1.014
3.268000,1.2819,0.1580,0.1047,1.296
3.272000,1.6083,0.6260,0.1777,1.735
3.277000,1.7172,0.9862,0.5752,2.062
3.283000,1.7887,1.0715,1.4185,2.522
3.287000,1.6675,0.8246,1.6411,2.481
3.292000,1.3748,0.5017,1.1216,1.844
3.297000,0.9005,0.2461,0.7414,1.192
3.302000,0.5490,0.1057,0.6284,0.841
3.307000,0.3146,0.0110,0.8603,0.916
3.322000,0.0553,0.0478,0.7771,0.781
3.325000,-0.2220,0.2710,0.7442,0.823
3.325000,-0.3099,0.7448,0.6822,1.057
3.326000,-0.3450,1.0124,0.3687,1.131
3.331000,-0.3681,1.0883,0.2537,1.177
3.336000,-0.3048,1.1926,0.5100,1.332
3.341000,-0.3436,1.2513,0.6730,1.462
3.346000,-0.4105,1.3003,0.4307,1.430
3.353000,-0.2688,1.4186,0.4056,1.500
3.358000,0.0263,1.5056,0.8249,1.717
3.363000,0.1908,1.4825,1.0057,1.802
3.380000,1.0093,1.7989,1.1739,2.373
3.382000,0.2180,1.5937,0.5850,1.712
3.383000,0.5057,1.2953,0.4185,1.452
3.384000,-0.0956,1.0402,1.0846,1.506
3.385000,-0.3544,0.6684,0.8274,1.121
3.392000,-0.5830,0.3713,0.5177,0.864
3.396000,-0.6482,0.1703,0.5579,0.872
3.401000,-0.7418,0.0677,0.5100,0.903
3.406000,-0.8425,0.0083,0.4712,0.965
3.410000,-0.8042,-0.0152,0.7113,1.074
3.414000,-0.5170,-0.0220,0.8597,1.003
3.420000,-0.4079,-0.0934,0.8142,0.915
3.424000,-1.4252,2.1246,-3.0485,3.980
3.429000,-1.1679,6.2264,-2.1807,6.700
3.434000,-0.8992,6.4442,-0.4376,6.521
3.439000,-0.9888,4.1145,0.5354,4.265
3.443000,-1.5777,0.7597,1.6091,2.378
3.449000,-2.2995,-1.9256,1.1293,3.205
3.454000,-2.6450,-2.9589,0.1202,3.971
3.459000,-2.2025,-2.3278,-0.0558,3.205
3.464000,-0.5026,-0.6369,0.4924,0.949
3.470000,1.4140,0.8306,0.9916,1.916
3.474000,3.8652,1.8950,1.3993,4.526
3.478000,5.7365,2.4654,2.2889,6.650
3.488000,6.8201,2.5256,2.7711,7.783
3.495000,7.1238,2.1672,2.5634,7.875
3.499000,5.8448,1.4409,2.0987,6.375
3.502000,3.2087,0.3999,1.6462,3.628
3.503000,0.9192,-0.4696,1.2625,1.631
3.524000,-1.0729,-1.1558,0.9161,1.824
3.525000,-2.6579,-1.6180,0.9676,3.259
3.525000,-2.3282,-1.1730,0.6849,2.695
3.526000,-1.7353,-0.5010,0.3029,1.831
3.526000,-1.1466,0.2062,0.1820,1.179
3.531000,0.0686,0.9649,0.1832,0.985
3.537000,0.6642,1.3616,0.3415,1.553
3.542000,0.9309,1.4443,0.5675,1.810
3.548000,1.0711,1.3188,0.5028,1.772
3.551000,1.4385,1.1239,0.1403,1.831
3.555000,0.9092,0.6448,0.0550,1.116
3.563000,0.7832,0.4840,-0.0296,0.921
3.570000,-0.0858,0.1441,0.1770,0.244
3.572000,0.1395,0.2208,0.0309,0.263
3.576000,-0.3916,0.0872,-0.0098,0.401
3.585000,-0.4246,-0.0746,0.1275,0.450
3.586000,0.0860,0.0533,0.1440,0.176
3.590000,0.0842,0.1094,0.1217,0.184
3.602000,0.4123,0.3137,-0.0514,0.521
3.603000,1.0854,0.5652,-0.1244,1.230
3.611000,0.9045,0.5532,0.0276,1.061
3.612000,0.9557,0.5648,0.0515,1.111
3.634000,0.6772,0.4709,-0.2717,0.868
3.635000,0.6424,0.4844,-0.5096,0.952
3.636000,0.1742,0.3830,-0.4044,0.584
3.636000,0.4294,0.3773,-0.5109,0.767
3.636000,0.2431,0.2592,-0.6978,0.783
3.639000,0.4351,0.3469,-0.6853,0.883
3.646000,0.6324,0.4846,-0.8106,1.137
3.649000,0.7975,0.6673,-0.9521,1.410
3.654000,1.0104,0.8899,-0.9008,1.620
3.658000,1.0929,0.9295,-0.8994,1.693
3.663000,1.0053,0.9009,-1.0873,1.733
3.670000,1.0283,0.9831,-1.3187,1.940
3.674000,1.1177,0.8865,-1.3963,1.996
3.687000,1.5551,0.4051,-1.4026,2.133
3.689000,0.7641,-0.1291,-1.7039,1.872
3.689000,-0.0292,-0.4433,-0.5510,0.708
3.711000,-0.3859,-1.2941,-0.8657,1.604
3.712000,-1.2507,-1.7309,-0.4287,2.178
3.712000,-1.7985,-2.0138,0.1803,2.706
3.712000,-2.0166,-2.2712,0.3188,3.054
3.713000,-1.8073,-2.3593,0.4922,3.012
3.719000,-1.7361,-2.4505,0.5788,3.058
3.723000,-1.6459,-2.5302,0.5408,3.066
3.726000,-1.4178,-2.5721,0.4672,2.974
3.731000,-1.1418,-2.4952,0.3651,2.768
3.736000,-0.5557,-2.4099,0.2430,2.485
3.741000,0.0059,-2.3190,0.1028,2.321
3.746000,0.3988,-2.2133,0.0292,2.249
3.750000,0.6620,-2.0599,-0.1880,2.172
3.756000,0.7518,-1.8831,-0.4772,2.083
3.760000,0.8132,-1.7668,-0.7029,2.068
3.766000,0.8304,-1.6370,-0.7414,1.980
3.771000,0.8565,-1.4055,-0.7221,1.797
3.776000,0.8753,-1.2445,-0.6543,1.656
3.781000,1.6321,1.3651,-0.5590,2.200
3.785000,4.2583,12.4620,-0.4541,13.177
3.790000,4.7495,14.4042,-0.3949,15.172
3.795000,3.2294,8.4741,0.6786,9.094
3.800000,0.4600,-0.2679,1.6422,1.726
3.805000,-0.6941,-4.8379,0.0632,4.888
3.813000,-0.2820,-3.2856,-2.6336,4.220
3.820000,0.1801,0.4838,-4.4151,4.445
3.825000,0.4309,2.5332,-4.7645,5.413
3.828000,0.4672,1.9857,-4.6106,5.042
3.829000,0.2575,0.4175,-3.8528,3.884
3.834000,0.0876,-0.5303,-3.0271,3.074
3.841000,0.0204,-0.5048,-2.4902,2.541
3.845000,0.1042,0.0341,-2.1070,2.110
3.848000,0.1086,0.3906,-1.9220,1.964
3.854000,0.1481,0.2997,-1.7395,1.771
3.859000,0.0528,-0.0996,-1.5768,1.581
3.864000,-0.1353,-0.3599,-1.4090,1.461
3.869000,-0.0340,-0.1994,-1.1042,1.123
3.873000,0.3465,0.2787,-0.7269,0.852
3.878000,0.7700,0.4933,-0.6751,1.137
3.883000,0.8553,0.3489,-0.7263,1.175
3.888000,0.7461,0.0277,-0.5502,0.927
3.893000,0.8392,-0.0017,-0.7057,1.096
3.898000,0.9813,0.2150,-0.6265,1.184
3.902000,1.0675,0.5029,-0.3958,1.245
3.915000,1.2823,0.6112,-0.1422,1.428
3.920000,1.2479,0.5328,-0.0950,1.360
3.923000,1.1246,0.5166,-0.0740,1.240
3.924000,0.9429,0.5269,0.0173,1.080
3.942000,0.5394,0.4037,0.2159,0.707
3.943000,0.0910,0.1449,0.3467,0.387
3.943000,-0.2152,0.0403,0.4176,0.472
3.944000,-0.7130,-0.0321,0.5118,0.878
3.946000,-1.0214,-0.0482,0.1329,1.031
3.952000,-1.2514,-0.1636,-0.0368,1.263
3.957000,-1.2682,-0.3900,0.2192,1.345
3.960000,-0.8600,-0.0435,0.0613,0.863
3.967000,-0.3344,0.4180,-0.0907,0.543
3.972000,-0.0027,0.3652,0.1497,0.395
3.976000,0.0753,0.0902,-0.0603,0.132
3.982000,-0.2419,-0.5409,-0.1326,0.607
3.987000,-0.1318,-0.6197,-0.6374,0.899
3.993000,-0.1805,-0.6013,-0.7011,0.941
3.996000,-0.3742,-0.8736,-0.7056,1.184
4.002000,-0.9886,-1.2951,0.3610,1.669
4.008000,-1.4036,-1.5783,0.3490,2.141
4.013000,-1.6260,-1.5841,-0.0119,2.270
4.016000,-1.6544,-1.1646,0.3725,2.057
4.020000,-1.3400,-0.3940,0.8779,1.650
4.030000,-0.8955,0.5456,0.8504,1.350
4.032000,-0.5249,0.8605,0.9233,1.367
4.040000,-0.4439,0.6376,0.5109,0.930
4.043000,-0.3164,0.1645,0.4281,0.557
4.045000,-0.3953,-0.3866,0.3186,0.638
4.059000,-0.3507,-0.5328,0.0287,0.638
4.060000,-0.3381,-0.5592,-0.2345,0.694
4.061000,-0.2335,-0.3322,-0.5077,0.650
4.063000,-0.0554,-0.2537,-0.4852,0.550
4.068000,0.1388,-0.0486,-0.8933,0.905
4.073000,0.3233,0.2183,-0.8737,0.957
4.079000,0.3424,0.2339,-0.5280,0.671
4.083000,0.1010,0.2135,-0.8117,0.845
4.089000,0.0887,0.2123,-0.8973,0.926
4.093000,0.3195,0.2852,-1.1008,1.181
4.098000,0.7267,0.5396,-1.2622,1.553
4.102000,0.9384,0.7073,-1.2195,1.694
4.107000,0.7382,0.8814,-1.4395,1.842
4.113000,0.6469,0.7920,-1.5348,1.844
4.117000,0.6234,0.3175,-1.1971,1.387
4.123000,0.9299,0.2308,-0.8535,1.283
4.128000,1.1381,0.1943,-0.6659,1.333
4.132000,1.1652,0.1386,-1.0956,1.605
4.139000,1.0784,-0.0058,-1.0919,1.535
4.142000,1.1954,-0.0834,-0.7653,1.422
4.147000,1.1224,-0.3500,-0.0961,1.180
4.153000,0.8974,-0.7478,-0.1423,1.177
4.157000,0.6967,-0.8989,-0.1184,1.143
4.166000,0.7090,-0.5836,0.1456,0.930
4.167000,0.5420,-0.5338,0.2521,0.801
4.176000,0.7645,-0.1542,0.3446,0.853
4.177000,0.6984,0.0862,0.2917,0.762
4.181000,0.4860,0.3261,0.0812,0.591
4.195000,0.2307,0.4387,0.2057,0.537
4.203000,-0.3998,0.0848,0.1867,0.449
4.204000,-1.0417,-0.7083,-0.2837,1.291
4.205000,-1.0974,-0.9646,0.0425,1.462
4.206000,-1.0797,-0.9284,0.5553,1.528
4.210000,-0.8218,-0.9824,0.6070,1.417
4.216000,-0.1829,-0.6222,-0.1125,0.658
4.221000,0.1360,-0.4558,-0.8244,0.952
4.225000,0.5240,0.1165,-0.9006,1.048
4.230000,0.8101,0.3175,-0.7642,1.158
4.235000,1.3703,0.6853,-0.7547,1.708
4.238000,1.2296,0.6029,-0.7401,1.557
4.244000,0.9690,0.0973,-0.7232,1.213
4.250000,0.7765,-0.5319,-0.6341,1.135
4.255000,0.5362,-1.0505,-0.4806,1.274
4.259000,0.3025,-1.5467,-0.3420,1.613
4.265000,0.1628,-1.7527,-0.1180,1.764
4.269000,-0.2086,-1.9725,-0.0501,1.984
4.274000,-0.6920,-1.9430,-0.1602,2.069
4.278000,-1.0995,-2.2763,0.0271,2.528
4.283000,-1.3321,-2.9955,0.0654,3.279
4.288000,-1.4608,-3.3782,0.0022,3.681
4.293000,-1.5743,-3.4151,0.3668,3.778
4.298000,-0.9668,-2.7626,0.2476,2.937
4.307000,-0.5062,-2.4640,0.0988,2.517
4.310000,0.0681,-1.6756,0.0657,1.678
4.359000,0.8933,0.3662,0.0367,0.966
4.360000,1.2942,1.9220,-0.2348,2.329
4.361000,1.7632,3.0399,-0.7209,3.587
4.362000,2.3486,4.4777,-1.1033,5.175
4.363000,2.1626,4.4090,-0.9567,5.003
4.365000,1.6638,3.8802,-0.6870,4.277
4.366000,1.0965,2.8972,-0.9274,3.234
4.366000,0.7376,2.0392,-0.9449,2.365
4.367000,0.3011,0.9241,-1.1289,1.490
4.368000,0.4419,0.6444,-1.1838,1.418
4.369000,0.3741,0.2265,-1.2885,1.361
4.370000,-0.0204,-0.5113,-1.1339,1.244
4.372000,-0.2382,-1.0065,-0.7590,1.283
4.375000,-0.7361,-1.6151,-0.4060,1.821
4.380000,-1.0005,-2.2723,-0.1269,2.486
4.386000,-1.1456,-2.6861,0.2170,2.928
4.390000,-0.9877,-2.5843,0.4103,2.797
4.398000,-0.6146,-1.5901,-0.0258,1.705
4.401000,-0.5871,-0.9929,-0.3648,1.210
4.411000,0.1210,-0.0639,-0.3072,0.336
4.411000,0.6070,0.4504,0.0520,0.758
4.414000,1.3509,1.8693,-0.5798,2.378
4.419000,1.7325,2.7881,-0.9366,3.414
4.424000,2.1268,3.5132,-0.6845,4.163
4.429000,1.9849,4.1110,-0.6438,4.610
4.435000,1.5654,3.2273,-0.0886,3.588
4.439000,1.2290,2.6760,0.4239,2.975
4.444000,0.5293,1.8166,0.7214,2.025
4.449000,0.2420,0.9701,0.8710,1.326
4.453000,0.1509,0.3015,0.9392,0.998
4.458000,-0.3536,-0.6315,1.0994,1.316
4.463000,-0.6663,-1.2360,0.8046,1.618
4.468000,-1.3412,-1.8154,0.4214,2.296
4.474000,-2.4939,-1.9202,0.2314,3.156
4.478000,-1.9854,-1.6723,-0.0921,2.597
4.484000,-1.6211,-1.7055,-0.4614,2.398
4.487000,-1.1841,-1.0712,-0.6740,1.733
4.493000,-0.5585,-0.5088,-0.5842,0.955
4.497000,-0.4743,0.1367,0.1824,0.526
4.502000,-0.3547,0.3395,0.4791,0.686
4.507000,-0.1018,1.1826,0.1069,1.192
4.512000,0.2778,1.7353,-0.4721,1.820
4.517000,0.5073,1.8451,-0.4160,1.958
4.521000,0.7002,1.7558,-0.1050,1.893
4.526000,0.7337,1.1311,-0.3192,1.385
4.531000,0.5878,1.1734,0.2256,1.332
4.536000,0.9860,1.9655,0.0717,2.200
4.541000,1.1581,2.4695,-0.1658,2.733
4.547000,1.0001,2.4775,-0.0800,2.673
4.555000,0.4662,1.7059,0.1105,1.772
4.556000,0.0413,0.8035,0.1306,0.815
4.560000,-0.1351,0.4090,-0.0440,0.433
4.566000,-0.3288,0.1537,-0.3333,0.493
4.572000,-0.2908,0.1905,-0.3648,0.504
4.576000,-0.3230,0.2967,-0.0797,0.446
4.580000,-0.3104,0.3433,0.0945,0.472
4.585000,-0.2461,0.3590,-0.1692,0.467
4.590000,-0.3139,0.1095,-0.3875,0.511
4.595000,-0.3369,-0.2279,-0.2902,0.500
4.599000,-0.5298,-0.7824,0.0843,0.949
4.605000,-0.6684,-1.1902,0.2528,1.388
4.609000,-0.7553,-1.4371,0.1678,1.632
4.614000,-0.6919,-1.3467,0.2790,1.540
4.619000,-0.5199,-0.8259,0.0093,0.976
4.624000,-0.2713,-0.3942,-0.5958,0.764
4.629000,-0.0665,-0.1015,-0.7948,0.804
4.634000,0.1691,-0.1150,-0.4584,0.502
4.639000,0.4475,0.0077,-0.4563,0.639
4.643000,1.0335,0.3094,-0.7496,1.314
4.648000,1.1711,0.6797,-0.7979,1.572
4.653000,1.1759,0.7002,-0.5409,1.472
4.658000,1.0860,0.9714,-0.3598,1.501
4.664000,0.8703,0.9719,-0.6198,1.444
4.668000,0.4755,0.5709,-0.5629,0.932
4.673000,0.0954,0.2660,-0.4961,0.571
4.678000,0.0910,0.0714,-0.5307,0.543
4.683000,-0.0181,-0.0751,-0.3273,0.336
4.688000,-0.0620,0.1059,-0.0604,0.137
4.692000,-0.0473,0.1742,-0.6696,0.694
4.700000,0.3180,0.3402,-0.9609,1.068
4.702000,0.3543,0.0946,-0.4231,0.560
4.707000,0.3310,-0.1984,-0.1015,0.399
4.712000,0.4165,-0.0559,-0.2844,0.507
4.724000,0.3701,0.0937,-0.4855,0.618
4.725000,0.3617,0.1595,-0.3660,0.539
4.726000,0.3629,0.2250,-0.3319,0.541
4.734000,0.4503,0.2356,-0.1661,0.535
4.737000,0.5541,0.4444,-0.1835,0.734
4.741000,0.5051,0.4879,-0.0682,0.706
4.747000,0.4398,0.5647,-0.0379,0.717
4.751000,0.2386,0.5145,-0.0519,0.570
4.756000,-0.0195,0.1418,0.1902,0.238
4.761000,-0.0915,0.0301,0.2532,0.271
4.766000,0.0294,0.1934,0.0275,0.198
4.771000,0.2240,0.5597,-0.1445,0.620
4.775000,0.2891,0.9184,-0.2059,0.985
4.782000,-0.0303,0.9037,-0.3979,0.988
4.785000,0.0974,1.0085,-0.4370,1.103
4.790000,-0.0331,0.9915,-0.3955,1.068
4.795000,-0.3856,0.7091,-0.2517,0.846
4.800000,-0.1987,1.0010,-0.3232,1.070
4.805000,-0.0078,1.0870,-0.7967,1.348
4.810000,-0.0354,1.1636,-0.7611,1.391
4.828000,0.0464,1.2044,-0.4249,1.278
4.829000,0.0509,1.0876,-0.4359,1.173
4.830000,0.2652,0.9567,-0.3303,1.046
4.830000,0.1125,1.3850,-0.7052,1.558
4.840000,-0.5238,0.1917,-0.4995,0.749
4.841000,-0.0978,-0.2401,0.2715,0.375
4.844000,-0.1784,-0.3822,-0.2679,0.500
4.849000,-0.4332,-0.7350,-0.1160,0.861
4.853000,-0.5431,-1.4938,0.2953,1.617
4.859000,-0.4545,-2.0245,0.6027,2.161
4.864000,-0.5439,-2.2914,0.6848,2.453
4.869000,-0.4628,-2.8277,0.9026,3.004
4.874000,-0.1623,-2.8251,1.0382,3.014
4.880000,0.2252,-2.4133,0.7612,2.541
4.883000,0.4435,-1.8274,0.4999,1.946
4.888000,0.5438,-1.3209,-0.0577,1.430
4.893000,0.6426,-0.8271,-0.4585,1.143
4.898000,0.8770,-0.4703,-0.6454,1.186
4.902000,1.0388,-0.2767,-0.5703,1.217
4.907000,1.2252,-0.1815,-0.3616,1.290
4.912000,1.2175,0.3294,-1.0395,1.634
4.917000,0.9600,0.3282,-0.5265,1.143
4.922000,1.4327,0.2673,-0.1066,1.461
4.939000,1.9547,0.9862,-0.9238,2.376
4.940000,1.3225,1.4318,-1.3175,2.353
4.940000,0.5764,0.8391,-1.2721,1.629
4.944000,0.4965,-0.1978,-1.4198,1.517
4.946000,0.4776,-0.8060,-0.5906,1.107
4.951000,0.5113,-0.5701,-0.9064,1.187
4.956000,0.6812,-0.0050,0.2014,0.710
4.961000,0.5621,-0.0837,-0.3682,0.677
4.966000,0.7236,0.5141,-1.0844,1.401
4.970000,0.4581,0.4350,-0.4960,0.803
4.975000,0.3403,-0.1076,-0.4339,0.562
4.980000,0.1215,-0.3505,-0.3703,0.524
4.986000,-0.0385,-0.0838,-0.3844,0.395
4.991000,-0.3064,0.3070,-0.4540,0.628
4.995000,-0.6938,0.2577,-0.2342,0.776
5.000000,-0.8043,0.2156,-1.0874,1.370
5.008000,-0.5126,0.6425,-0.7274,1.098
5.013000,-0.5681,0.8012,0.1481,0.993
5.016000,-1.0663,0.4173,-0.5678,1.278
5.021000,-1.2955,0.7395,0.2373,1.510
5.025000,-1.0548,0.4162,-0.8459,1.415
5.032000,-1.3694,0.7104,0.5382,1.634
5.036000,-1.9560,-0.1205,-0.7169,2.087
5.040000,-0.7976,-0.1706,0.1523,0.830
5.086000,-1.0290,-0.6100,0.3918,1.259
5.088000,-1.0561,-0.7049,-0.1519,1.279
5.088000,-0.6915,-0.6877,-0.3935,1.052
5.089000,0.0162,-0.5299,-0.5746,0.782
5.090000,0.4316,-0.6332,0.9804,1.244
5.090000,0.8657,-0.8824,0.5725,1.362
5.091000,1.1660,-0.4005,0.5638,1.356
5.092000,1.3246,0.4031,0.2788,1.412
5.093000,1.4947,0.6534,-0.3906,1.677
5.094000,1.6261,0.5662,-0.3277,1.753
5.095000,1.5945,0.1875,-0.2177,1.620
5.099000,1.5407,0.2753,-0.5702,1.666
5.104000,0.9711,0.2316,-0.6646,1.199
5.110000,0.5777,-0.0727,-0.8938,1.067
5.113000,0.3747,-0.2787,-0.5291,0.706
5.118000,0.3309,-0.3460,-0.4815,0.679
5.124000,0.3668,-0.2842,-0.4301,0.633
5.128000,0.3107,-0.1915,-0.3967,0.539
5.134000,0.1341,-0.1683,-0.5941,0.632
5.139000,0.0473,-0.1333,-0.6635,0.678
5.145000,-0.4084,-0.0937,-0.6406,0.765
5.149000,-0.5998,-0.4054,-0.2611,0.770
5.154000,-0.5069,-0.3724,-0.3525,0.721
5.158000,-0.4457,-0.1169,-0.2424,0.521
5.167000,-0.1555,0.2413,-0.4450,0.530
5.168000,0.0484,0.3506,-0.5676,0.669
5.171000,0.4052,0.3357,-0.4865,0.717
5.177000,0.8257,0.4620,-0.6656,1.157
5.184000,1.0451,0.4977,-0.2465,1.183
5.187000,1.1499,0.5930,0.0615,1.295
5.199000,1.0721,0.8768,-0.3661,1.433
5.200000,1.0177,1.0475,-0.3639,1.505
5.201000,0.7831,0.7183,-0.1956,1.080
5.206000,0.9221,0.3081,-0.3748,1.042
5.211000,0.9005,0.0966,-0.2506,0.940
5.215000,0.7598,0.2652,-0.2062,0.831
5.220000,0.8347,0.2089,-0.4196,0.957
5.225000,1.2593,0.6425,-0.6682,1.564
5.231000,1.4643,0.8388,-0.6363,1.803
5.235000,1.5485,0.7095,-0.3713,1.743
5.241000,1.5413,0.7665,-0.5781,1.816
5.248000,1.3876,0.4072,0.0099,1.446
5.250000,1.3980,0.1484,-0.2225,1.423
5.255000,1.2686,0.2862,-0.2224,1.319
5.260000,0.8040,-0.0355,-0.3365,0.872
5.265000,0.6661,-0.2471,-0.1521,0.727
5.270000,0.2380,-0.7049,-0.2815,0.796
5.284000,0.0114,-1.0355,-0.0704,1.038
5.285000,-0.2057,-1.5377,0.0479,1.552
5.286000,-0.0719,-1.0187,-0.0340,1.022
5.290000,-0.1463,-0.4931,-0.4314,0.671
5.306000,-0.2389,0.0703,-0.7436,0.784
5.307000,-0.4625,0.1409,-1.0215,1.130
5.307000,-0.8586,-0.0894,-1.2509,1.520
5.308000,-0.6625,-0.3188,-1.3946,1.577
5.313000,-1.5509,-0.5784,-0.9421,1.905
5.318000,-1.6002,-0.6218,-1.0459,2.010
5.323000,-2.0421,-0.8555,-1.1037,2.474
5.328000,-2.2915,-1.0093,-0.8263,2.637
5.332000,-2.3247,-0.8417,-0.7566,2.586
5.338000,-1.6758,-0.2791,-0.7967,1.876
5.342000,-1.1504,-0.1778,-0.3688,1.221
5.347000,-0.6947,-0.3988,0.2392,0.836
5.352000,-0.1857,-0.5812,0.4858,0.780
5.357000,0.4899,-0.7155,0.9191,1.264
5.362000,1.0075,-0.6729,1.0023,1.572
5.367000,1.7000,-0.9797,1.6376,2.556
5.371000,7.5961,-0.8993,-1.1858,7.741
5.377000,1.8251,-2.0941,2.0477,3.451
5.381000,-3.0805,1.4836,6.7387,7.556
5.386000,1.3233,0.8438,-0.4849,1.643
5.392000,0.0840,-1.7358,-1.0975,2.055
5.396000,-0.3704,-1.5231,1.9888,2.532
5.403000,-0.4927,-0.6367,0.2258,0.836
5.410000,-0.1097,-0.1575,-0.6154,0.645
5.411000,-0.0952,0.0009,-0.2778,0.294
5.417000,-0.2525,-0.0966,-0.5354,0.600
5.421000,-0.2930,-0.3494,-0.8302,0.947
5.425000,0.0210,0.4402,-0.9595,1.056
5.431000,-0.3310,-0.0832,-0.3675,0.502
5.436000,-0.5848,-0.6156,-0.0200,0.849
5.440000,-0.2994,-0.0410,-1.1392,1.179
5.445000,0.8370,1.9909,-1.7079,2.753
5.449000,1.0480,0.9471,-1.2100,1.860
5.454000,1.0917,-0.9103,-0.0071,1.421
5.459000,0.9795,-3.2725,0.4137,3.441
5.464000,0.1316,-5.9120,1.9860,6.238
5.469000,-0.7005,-4.6392,-1.3462,4.881
5.474000,3.0690,-0.1043,0.2032,3.077
5.478000,2.7576,-0.3273,-1.7548,3.285
5.484000,3.6117,-0.7555,0.9740,3.816
5.489000,4.2980,-0.7250,-0.8238,4.436
5.494000,3.5805,-0.6355,0.5152,3.673
5.499000,2.2022,-1.4077,0.0995,2.616
5.503000,1.7100,-0.6933,-0.8282,2.023
5.510000,1.9413,-0.2213,-0.8182,2.118
5.513000,1.9968,-1.5900,-0.5509,2.611
5.544000,1.3753,-1.2004,-0.6912,1.952
5.545000,0.8462,-1.9465,-0.1149,2.126
5.546000,-0.1992,-1.7619,-0.6444,1.887
5.548000,-1.2166,-2.8057,0.0491,3.059
5.549000,-1.4077,-3.2842,-0.5121,3.610
5.550000,-1.7388,-2.9637,-0.3169,3.451
5.551000,-1.4015,-1.9145,-0.0596,2.373
5.552000,-1.3590,-1.3372,-0.8126,2.072
5.566000,-2.3005,-0.8606,-0.2154,2.466
5.567000,-2.5444,0.2938,-0.2916,2.578
5.579000,-1.8942,0.9615,-1.0173,2.355
5.580000,-1.4941,1.0717,-0.4582,1.895
5.581000,-1.2183,1.6409,-0.2939,2.065
5.582000,-1.3075,1.8630,-0.3313,2.300
5.587000,-0.4914,2.9336,-1.4320,3.301
5.591000,-0.2865,4.0461,-0.7634,4.127
5.596000,-0.0165,4.9921,-1.1561,5.124
5.600000,0.0759,5.2846,-1.3115,5.445
5.605000,-0.1147,5.5217,-0.7306,5.571
5.610000,-0.6337,5.0751,-0.6814,5.160
5.615000,-0.5164,4.9420,-0.8737,5.045
5.621000,-0.9591,4.2762,-0.0821,4.383
5.628000,-1.5003,2.8108,0.6529,3.252
5.630000,-1.8760,0.4030,1.3139,2.326
5.639000,-1.8956,-0.6543,2.0694,2.882
5.640000,-1.8391,-0.5733,2.0116,2.785
5.644000,-1.5518,-0.1465,1.3169,2.041
5.649000,-1.2008,-0.0625,1.0230,1.579
5.654000,-0.6037,0.6805,0.8878,1.271
5.659000,-0.2553,0.9038,0.9831,1.360
5.664000,-0.5605,0.1417,-0.1345,0.594
5.670000,-0.2655,-0.3593,-1.1958,1.277
5.675000,-0.7836,-1.1487,-2.9138,3.229
5.678000,-1.3047,-1.4372,-3.8781,4.337
5.684000,-1.3007,-1.1082,-3.0108,3.462
5.689000,-1.5195,-0.7694,-0.0440,1.704
5.693000,-0.6110,0.0068,1.8953,1.991
5.699000,0.9464,1.1099,1.2037,1.891
5.703000,3.1559,1.8995,-2.5049,4.454
5.708000,3.8242,1.5017,-5.0014,6.472
5.712000,3.2269,0.7109,-3.2109,4.607
5.719000,2.2465,0.4427,-0.7093,2.397
5.724000,1.1090,0.3424,0.9555,1.503
5.727000,0.2287,0.1992,2.4471,2.466
5.732000,-0.2698,0.0152,3.5513,3.562
5.740000,-0.5408,-0.0812,4.0064,4.044
5.742000,-0.6444,-0.1045,3.5750,3.634
5.747000,-0.5148,-0.0522,2.3259,2.383
5.753000,-0.2713,-0.1009,0.8871,0.933
5.757000,0.0881,0.0198,-0.3956,0.406
5.761000,0.3532,0.2146,-1.3207,1.384
5.768000,0.4223,0.3520,-1.9000,1.978
5.772000,0.5392,0.4824,-2.1374,2.257
5.776000,0.5443,0.5247,-2.0716,2.205
5.781000,0.4586,0.4025,-1.7582,1.861
5.786000,0.3852,0.2976,-1.2283,1.321
5.791000,0.3529,0.2813,-0.5947,0.747
5.796000,0.2778,0.2532,-0.0338,0.377
5.801000,0.2075,0.2035,0.3404,0.448
5.806000,0.1801,0.1323,0.5550,0.598
5.811000,0.1626,0.0633,0.5245,0.553
5.818000,0.1976,0.0468,0.3329,0.390
5.825000,0.1921,0.0159,0.0658,0.204
5.825000,0.1244,-0.0197,-0.2293,0.262
5.829000,0.0400,-0.0362,-0.4002,0.404
5.835000,0.0154,-0.0334,-0.4902,0.492
5.840000,0.0125,-0.0522,-0.4773,0.480
5.845000,0.0667,-0.0589,-0.4528,0.461
5.852000,0.0703,-0.0321,-0.3883,0.396
5.859000,0.0953,-0.0388,-0.3265,0.342
5.860000,0.1084,-0.0526,-0.3176,0.340
5.864000,0.0950,-0.1428,-0.3306,0.372
5.869000,0.0651,-0.2901,-0.2554,0.392
5.874000,-0.0505,-0.8602,-0.1429,0.873
5.879000,-0.0885,-0.4567,-0.6962,0.837
5.884000,0.1844,-0.2376,-0.5758,0.650
5.889000,0.4167,-0.1453,-0.2816,0.524
5.893000,0.3836,-0.1678,-0.1151,0.434
5.898000,0.3626,-0.2284,0.3214,0.536
5.903000,0.0884,-0.4779,0.4667,0.674
5.908000,0.0560,-0.3377,0.6295,0.717
5.913000,-0.0532,-0.1501,0.5997,0.621
5.921000,-0.0174,0.1948,0.3994,0.445
5.923000,-0.0394,0.2357,0.1642,0.290
5.927000,0.0812,0.1975,-0.1680,0.272
5.933000,0.1729,0.0876,-0.5400,0.574
5.938000,0.2908,0.2145,-0.6967,0.785
5.943000,0.2990,0.2147,-0.8133,0.893
5.947000,0.3119,0.3847,-0.8233,0.961
5.952000,0.2370,0.4828,-0.6326,0.830
5.957000,0.3963,0.5067,-0.0833,0.649
5.962000,0.3881,0.3202,0.1812,0.535
5.968000,0.3273,0.1912,0.1762,0.418
5.973000,0.2114,0.0598,0.1980,0.296
5.977000,0.0935,0.0408,0.3018,0.319
5.987000,0.0494,0.0361,0.2032,0.212
5.992000,0.0099,0.0312,-0.0310,0.045
5.994000,-0.0445,-0.0143,-0.1259,0.134
5.996000,0.0372,0.0453,-0.2753,0.282
6.016000,-0.0056,0.0284,-0.5201,0.521
6.017000,0.0348,-0.0100,-0.5666,0.568
6.018000,0.2089,0.1072,-0.4587,0.515
6.018000,0.2039,0.0760,-0.2768,0.352
6.022000,0.1805,0.0137,-0.1709,0.249
6.026000,0.1039,-0.0365,-0.0154,0.111
6.032000,0.0534,-0.1368,0.1163,0.187
6.035000,0.0126,-0.0484,0.1624,0.170
6.042000,-0.0478,-0.0557,0.1253,0.145
6.046000,-0.0676,-0.0201,-0.0091,0.071
6.051000,0.0052,0.0680,-0.1217,0.140
6.055000,0.1326,0.0628,-0.1982,0.247
6.060000,0.1761,0.0528,-0.3392,0.386
6.067000,0.3723,0.2077,-0.1836,0.464
6.071000,0.4587,0.1879,-0.1143,0.509
6.075000,0.4666,0.2016,-0.1977,0.545
6.081000,0.3862,0.1437,-0.2649,0.490
6.085000,0.4354,0.2460,-0.1980,0.538
6.089000,0.4136,0.2119,-0.2362,0.521
6.094000,0.3303,0.1396,-0.2665,0.447
6.100000,0.3066,0.0865,-0.2256,0.390
6.109000,0.2879,0.0980,-0.1705,0.349
6.111000,0.2932,0.1310,-0.1104,0.340
6.127000,0.2773,0.0850,-0.1697,0.336
6.128000,0.2614,0.0678,-0.2573,0.373
6.128000,0.6664,0.0386,-1.1574,1.336
6.128000,1.4561,0.1173,-1.8259,2.338
6.133000,0.7624,0.0695,-0.0750,0.769
6.139000,-0.0911,-0.2051,0.7438,0.777
6.143000,-0.4176,-0.2573,0.5043,0.703
6.147000,-0.4465,-0.1735,0.1036,0.490
6.152000,-0.4145,-0.0564,-0.4490,0.614
6.157000,-0.1469,-0.0110,-0.8492,0.862
6.162000,0.1296,0.0872,-0.6505,0.669
6.167000,0.2385,0.1041,-0.0993,0.279
6.172000,0.3354,0.0898,0.2962,0.456
6.177000,0.2892,0.0993,0.3771,0.486
6.182000,0.2289,0.0895,0.0025,0.246
6.188000,0.3622,0.0510,-0.3617,0.514
6.192000,0.5283,-0.0186,0.1978,0.564
6.197000,0.4700,0.0097,0.2079,0.514
6.202000,0.3293,0.1145,-0.7906,0.864
6.207000,0.0774,0.1596,-1.3975,1.409
6.220000,0.0357,0.2815,-0.7603,0.812
6.223000,-0.1976,0.2383,0.0166,0.310
6.223000,-0.4646,0.1211,0.3075,0.570
6.231000,-0.5554,0.0732,0.1448,0.579
6.231000,-0.3915,0.0419,-0.1747,0.431
6.248000,-0.0901,0.0274,-0.3075,0.322
6.249000,0.0696,0.0177,-0.4451,0.451
6.249000,0.0714,0.0224,-0.3057,0.315
6.250000,0.0130,-0.0207,-0.0781,0.082
6.258000,-0.0002,-0.0925,0.0947,0.132
6.261000,-0.1547,-0.2336,0.1031,0.299
6.265000,-0.3672,-0.2815,-0.0285,0.464
6.271000,-0.3678,-0.1956,-0.3388,0.537
6.275000,-0.2879,-0.1385,-0.5988,0.679
6.279000,-0.2089,-0.1626,-0.6656,0.716
6.284000,0.0436,-0.0504,-0.5084,0.513
6.290000,0.3147,0.1406,-0.2443,0.422
6.295000,0.5833,0.2955,-0.1528,0.672
6.300000,1.0076,0.4742,-0.2693,1.146
6.306000,1.2919,0.5906,-0.3023,1.452
6.309000,1.1451,0.4775,-0.2134,1.259
6.315000,0.7013,0.2236,-0.0315,0.737
6.320000,0.2946,-0.0157,0.0714,0.304
6.324000,0.1584,-0.0420,0.1795,0.243
6.328000,0.1372,-0.1449,-0.0420,0.204
6.333000,0.2041,-0.0469,-0.1268,0.245
6.338000,0.1682,0.2637,-0.0776,0.322
6.344000,0.1085,0.2488,-0.3389,0.434
6.348000,0.1685,0.1360,-0.6359,0.672
6.353000,0.2666,0.1166,-0.6127,0.678
6.358000,0.4911,0.2167,0.0342,0.538
6.373000,0.4828,-0.0827,1.4138,1.496
6.376000,-0.1184,-0.2007,1.0050,1.032
6.376000,-0.5512,-0.1273,-0.2914,0.636
6.400000,0.1410,0.0492,-3.8627,3.866
6.402000,0.5221,-0.1653,-3.9313,3.969
6.403000,0.8201,0.2447,0.8256,1.189
6.404000,0.1771,0.0637,2.7849,2.791
6.405000,-0.4884,-0.2349,2.0702,2.140
6.406000,0.0165,-0.1800,0.4904,0.523
6.406000,0.2484,-0.5529,-1.0870,1.245
6.411000,0.0546,-0.3636,-1.0275,1.091
6.416000,0.1641,0.0696,-0.3322,0.377
6.421000,0.1518,-0.0640,0.0627,0.176
6.427000,0.3020,-0.1401,0.1490,0.365
6.431000,0.3756,-0.0608,0.1283,0.402
6.435000,0.3303,0.0612,-0.1404,0.364
6.440000,0.2878,0.1641,-0.4159,0.532
6.446000,0.1808,0.1784,-0.5239,0.582
6.450000,0.1075,0.1449,-0.4769,0.510
6.455000,0.0462,-0.0725,-0.3992,0.408
6.461000,-0.0919,-0.2418,-0.2714,0.375
6.465000,-0.0749,-0.0357,-0.1319,0.156
6.470000,-0.0247,0.1032,-0.1143,0.156
6.476000,-0.0152,0.1606,-0.2304,0.281
6.482000,-0.0228,0.1200,-0.3774,0.397
6.485000,0.0312,0.0484,-0.2615,0.268
6.489000,0.1041,0.0175,-0.1721,0.202
6.494000,0.1955,0.0750,-0.0613,0.218
6.499000,0.3632,0.1731,0.0448,0.405
6.504000,0.4425,0.2662,0.0294,0.517
6.524000,0.5245,0.3041,-0.0643,0.610
6.527000,0.4517,0.1890,-0.1647,0.517
6.528000,0.5704,-0.1171,-0.5971,0.834
6.529000,1.1682,-0.1147,-1.5301,1.928
6.532000,1.1346,0.5496,0.2966,1.295
6.533000,-0.2111,0.3147,1.8713,1.909
6.538000,-1.3872,-0.7920,-0.2003,1.610
6.550000,-0.8597,-0.3752,-0.6058,1.117
6.554000,0.2228,-0.0379,0.3132,0.386
6.554000,0.4815,-0.0620,0.1324,0.503
6.558000,0.3556,0.1314,0.1533,0.409
6.564000,0.1972,0.1572,0.0717,0.262
6.568000,0.0733,-0.0058,-0.3515,0.359
6.573000,0.0998,-0.0611,-0.4420,0.457
6.578000,0.2000,0.0296,-0.2962,0.359
6.583000,0.2404,0.0842,-0.0501,0.260
6.587000,0.0325,0.0385,-0.2371,0.242
6.593000,0.0258,0.1171,-0.3381,0.359
6.597000,0.2172,0.2553,-0.3717,0.501
6.602000,0.2824,0.2260,-0.2928,0.465
6.607000,0.1825,-0.0398,-0.2233,0.291
6.612000,0.1592,0.0747,-0.1639,0.240
6.617000,-0.0714,-0.0403,-0.3672,0.376
6.621000,-0.1202,-0.1289,-0.5373,0.565
6.627000,0.0213,-0.0428,-0.1439,0.152
6.632000,0.0141,-0.0141,0.1319,0.133
6.636000,0.1813,-0.0119,-0.0010,0.182
6.647000,0.3119,-0.0049,-0.0453,0.315
6.648000,0.5283,0.0451,0.0804,0.536
6.679000,0.6087,-0.0245,0.0486,0.611
6.680000,0.5320,-0.0271,-0.2126,0.574
6.680000,0.6731,0.0994,-0.0555,0.683
6.680000,0.7520,0.2425,0.1850,0.812
6.680000,0.6597,0.1894,0.0578,0.689
6.681000,0.5108,0.1005,-0.1335,0.537
6.681000,0.3673,0.0833,-0.1213,0.396
6.685000,0.0883,-0.0604,-0.2095,0.235
6.690000,0.0533,-0.0606,-0.1663,0.185
6.694000,0.0252,-0.0034,-0.0754,0.080
6.699000,0.1234,0.0490,-0.0513,0.142
6.704000,0.0972,0.0319,-0.0581,0.118
6.709000,-0.0030,0.0028,-0.1102,0.110
6.714000,-0.0124,-0.0022,-0.1026,0.103
6.718000,-0.0194,-0.0025,-0.1021,0.104
6.725000,-0.0745,-0.0148,-0.1278,0.149
6.729000,-0.1968,-0.1012,-0.2512,0.335
6.737000,0.0006,-0.0178,-0.4055,0.406
6.745000,0.1834,0.1467,-0.4042,0.468
6.746000,0.2584,0.2299,-0.4320,0.553
6.749000,0.3621,0.2771,-0.4026,0.608
6.775000,0.4562,0.2382,-0.2656,0.579
6.775000,0.5121,0.1969,-0.1403,0.566
6.776000,0.4442,0.1747,-0.1917,0.514
6.776000,0.3314,0.1765,-0.3121,0.488
6.776000,0.2905,0.1352,-0.2339,0.397
6.777000,0.2832,0.1371,-0.1585,0.352
6.782000,0.2881,0.0673,-0.1789,0.346
6.786000,0.1832,0.0716,-0.1585,0.253
6.791000,0.1094,0.1261,-0.2336,0.287
6.796000,0.0213,0.1017,-0.3685,0.383
6.801000,-0.0311,0.0822,-0.5037,0.511
6.806000,0.0028,0.0961,-0.4737,0.483
6.815000,0.0271,0.1650,-0.3982,0.432
6.820000,0.0987,0.1908,-0.4428,0.492
6.821000,0.1848,0.1520,-0.5232,0.575
6.826000,0.2465,0.1134,-0.4818,0.553
6.831000,0.2963,0.1130,-0.4120,0.520
6.836000,0.2887,0.1509,-0.2373,0.403
6.842000,0.2073,0.0812,-0.1561,0.272
6.846000,0.2048,0.0499,-0.1300,0.248
6.851000,0.1616,0.0162,-0.0609,0.173
6.873000,0.0803,-0.0198,-0.0492,0.096
6.873000,0.1017,-0.0343,-0.1140,0.157
6.873000,0.1255,-0.0345,-0.1309,0.185
6.874000,0.1132,-0.0489,-0.1551,0.198
6.875000,0.0720,-0.0705,-0.0915,0.136
6.879000,0.0308,-0.0657,-0.0040,0.073
6.884000,-0.0149,-0.0777,-0.0142,0.080
6.889000,-0.0442,-0.0898,-0.0242,0.103
6.894000,-0.0216,-0.0611,-0.0630,0.090
6.900000,0.0343,-0.0755,-0.0427,0.093
6.905000,0.0803,-0.0780,-0.0721,0.133
6.909000,0.1078,-0.1164,0.0043,0.159
6.915000,0.0891,-0.0902,0.0781,0.149
6.919000,0.0537,-0.1142,0.1064,0.165
6.925000,0.0517,-0.1597,0.0368,0.172
6.930000,0.0327,-0.1502,0.0177,0.155
6.934000,0.0592,-0.1694,-0.0564,0.188
6.939000,0.0923,-0.1385,-0.0516,0.174
6.946000,0.1302,-0.1027,-0.0206,0.167
6.948000,0.0914,-0.0718,0.0224,0.118
6.954000,0.0934,-0.0457,-0.0876,0.136
6.959000,0.1406,-0.0221,-0.1377,0.198
6.965000,0.2354,0.0517,-0.1998,0.313
6.968000,0.2322,0.0538,-0.1162,0.265
6.974000,0.1644,0.0319,-0.0518,0.175
6.979000,0.1294,0.0290,0.0100,0.133
6.983000,0.1444,0.0333,-0.0448,0.155
6.995000,0.1568,0.0517,-0.1086,0.198
6.997000,0.1336,0.0177,-0.0841,0.159
6.998000,0.0844,0.0055,-0.0195,0.087
7.006000,0.0760,-0.0163,-0.0098,0.078
7.024000,0.1078,0.0215,-0.0712,0.131
7.025000,0.1298,0.0376,-0.2174,0.256
7.025000,0.1135,0.0037,-0.2391,0.265
7.025000,0.1018,0.0485,-0.2374,0.263
7.027000,0.0692,-0.0091,-0.2379,0.248
7.031000,0.0107,-0.0355,-0.1975,0.201
7.038000,0.1229,0.0332,-0.1504,0.197
7.042000,0.1510,0.0136,-0.1015,0.182
7.047000,0.1120,-0.0770,-0.1336,0.191
7.050000,0.1183,-0.0151,-0.0801,0.144
7.055000,0.1315,0.0511,-0.0934,0.169
7.060000,0.1351,0.0954,-0.1115,0.199
7.065000,0.1506,0.2746,-0.1671,0.355
7.071000,0.1521,0.2411,-0.4787,0.557
7.075000,0.1942,0.1273,-0.6837,0.722
7.080000,0.1955,0.0595,-0.5860,0.621
7.086000,0.1873,0.0778,-0.4396,0.484
7.090000,0.1789,0.1030,-0.2612,0.333
7.095000,0.1800,0.0735,-0.2987,0.356
7.100000,0.2050,-0.0055,-0.2336,0.311
7.105000,0.1896,-0.0175,-0.0976,0.214
7.110000,0.0581,-0.0484,-0.0195,0.078
7.115000,0.1357,0.0680,0.0176,0.153
7.131000,0.0967,0.0435,-0.1235,0.163
7.133000,0.0744,0.0572,-0.2563,0.273
7.134000,0.0146,0.0114,-0.2648,0.265
7.139000,0.0430,-0.0126,-0.2521,0.256
7.140000,0.0636,-0.0435,-0.1233,0.145
7.144000,0.0769,-0.0077,0.0663,0.102
7.149000,0.1114,-0.0055,0.1287,0.170
7.158000,0.2642,-0.0057,0.1386,0.298
7.159000,0.3349,0.0273,0.0706,0.343
7.163000,0.3056,0.0956,0.0603,0.326
7.168000,0.3291,0.1728,-0.0375,0.374
7.172000,0.2934,0.0833,-0.1960,0.363
7.177000,0.3246,0.1629,-0.1418,0.390
7.183000,0.2301,0.1921,-0.1237,0.324
7.188000,0.1936,0.1333,-0.1438,0.276
7.193000,0.1363,0.0037,-0.0689,0.153
7.198000,0.1841,0.0319,-0.0538,0.194
7.202000,0.2125,0.0289,-0.0673,0.225
7.208000,0.1127,-0.0286,-0.0425,0.124
7.212000,0.0777,-0.0618,-0.0179,0.101
7.232000,0.0523,-0.1376,-0.0648,0.161
7.242000,-0.0016,-0.1439,-0.1135,0.183
7.243000,0.0086,0.0278,0.0234,0.037
7.244000,0.0164,0.0344,0.0075,0.039
7.245000,0.2091,0.1856,0.2743,0.392
7.245000,0.1891,0.0530,-0.1674,0.258
7.246000,0.3522,0.0884,-0.9181,0.987
7.263000,0.1763,0.0759,-0.6077,0.637
7.264000,-0.1568,-0.1060,-0.1076,0.218
7.265000,-0.0549,-0.2375,0.2888,0.378
7.266000,0.1706,-0.2733,0.1210,0.344
7.271000,-0.0158,-0.3713,-0.2615,0.454
7.276000,0.2086,-0.0078,-0.2422,0.320
7.281000,0.2707,0.2454,-0.2837,0.463
7.290000,0.2402,0.1828,-0.2348,0.382
7.290000,0.2339,0.0917,-0.0571,0.258
7.294000,0.1728,0.0843,0.0538,0.200
7.302000,0.1289,0.0769,0.0478,0.158
7.304000,0.1327,0.0767,-0.0965,0.181
7.309000,0.1628,0.0931,-0.2001,0.274
7.320000,0.1212,0.0857,-0.2964,0.331
7.322000,0.0102,0.0640,-0.2876,0.295
7.324000,-0.0460,0.0327,-0.2359,0.243
7.330000,-0.0617,0.0373,-0.1437,0.161
7.339000,-0.0155,0.0156,-0.1592,0.161
7.340000,-0.0677,-0.0921,-0.2655,0.289
7.344000,-0.0009,-0.0252,-0.3095,0.311
7.385000,0.1780,0.1085,-0.2486,0.324
7.385000,0.2995,0.1442,-0.1712,0.374
7.385000,0.3568,0.1152,-0.1537,0.405
7.386000,0.4145,0.1580,-0.1268,0.461
7.386000,0.3244,0.1339,-0.1382,0.377
7.386000,0.1823,0.0787,-0.2645,0.331
7.386000,0.0144,-0.0432,-0.2857,0.289
7.386000,0.0519,-0.0575,0.0010,0.077
7.388000,0.0939,-0.0287,0.1561,0.184
7.393000,0.1358,0.0071,0.1084,0.174
7.397000,0.1874,-0.0145,-0.0562,0.196
7.402000,0.1696,0.0309,-0.1632,0.237
7.407000,0.1040,0.0356,-0.1242,0.166
7.411000,0.0625,0.0307,-0.0591,0.091
7.416000,0.1142,-0.0028,-0.1138,0.161
7.422000,0.1801,0.0234,-0.1348,0.226
7.427000,0.2294,0.0544,-0.0843,0.250
7.431000,0.1929,0.0519,-0.0669,0.211
7.437000,0.0992,0.0135,-0.0252,0.103
7.442000,0.0149,-0.0057,-0.0005,0.016
7.454000,0.0118,-0.0345,0.0027,0.037
7.456000,0.0206,-0.0465,-0.0226,0.056
7.457000,0.0889,-0.0250,-0.0383,0.100
7.462000,-2.8206,-0.4074,1.1744,3.082
7.466000,-2.2037,-0.9828,-3.6870,4.406
7.502000,1.2947,-1.1772,-0.5204,1.826
7.503000,1.6840,0.4064,2.6881,3.198
7.504000,0.8694,1.1250,1.1836,1.850
7.504000,0.6108,0.6453,-0.6523,1.102
7.505000,0.6928,0.1208,-1.1941,1.386
7.505000,0.2736,-0.1446,-0.8459,0.901
7.506000,-0.1286,-0.0536,0.0601,0.152
7.506000,-0.0383,0.1281,0.7004,0.713
7.510000,0.0448,0.0250,0.5097,0.512
7.515000,0.4191,-0.1904,0.5718,0.734
7.519000,0.0383,0.0414,-0.9147,0.916
7.524000,0.3414,0.0388,-1.0867,1.140
7.529000,0.2377,-0.5922,-0.2632,0.690
7.534000,-0.5382,-1.1125,0.4086,1.302
7.539000,-0.2698,-0.9319,-0.0935,0.975
7.545000,-0.1261,-1.3250,-0.5596,1.444
7.549000,0.1770,-1.5025,-0.6486,1.646
7.554000,0.1804,-1.4599,-0.0188,1.471
7.559000,-0.0099,-1.1042,0.4241,1.183
7.571000,-0.1087,-0.5984,0.0875,0.614
7.572000,0.7628,-0.2463,-0.0405,0.803
7.573000,0.8967,-0.1456,0.3280,0.966
7.589000,0.4852,-0.3177,0.2623,0.636
7.590000,0.2111,-0.1239,0.0057,0.245
7.590000,0.4042,-0.0020,-0.3010,0.504
7.597000,-0.1771,0.1557,-0.3283,0.404
7.598000,0.2195,-0.2580,-0.2531,0.423
7.603000,0.6362,-0.5780,-0.6777,1.095
7.607000,0.7817,-0.5270,-1.0742,1.429
7.612000,0.7698,-0.7674,-1.2361,1.646
7.617000,1.2539,-0.5389,-0.8480,1.607
7.623000,0.7321,-1.3811,-0.5845,1.669
7.626000,0.1287,-1.3714,-0.3558,1.423
7.631000,0.0088,-1.1274,0.0033,1.127
7.636000,-0.0182,-0.7643,-0.0512,0.766
7.641000,-0.0784,-0.3777,0.0828,0.395
7.647000,-0.5713,-1.0120,0.4368,1.242
7.654000,-0.9581,-1.1796,0.3233,1.554
7.656000,-0.4340,-1.7152,0.4856,1.835
7.663000,0.3846,-2.0040,0.2091,2.051
7.665000,0.8554,-2.5960,-0.2889,2.748
7.670000,0.7387,-2.5061,-0.1845,2.619
7.676000,0.2782,-2.4259,-0.2903,2.459
7.680000,0.3388,-1.8439,0.1012,1.878
7.685000,0.4050,-1.5781,0.2576,1.650
7.690000,0.2174,-1.4441,0.2133,1.476
7.705000,-0.1650,-1.2434,-0.2705,1.283
7.709000,-0.0724,-0.8230,-0.2949,0.877
7.709000,0.3621,-0.3601,-0.2981,0.591
7.710000,-0.1954,-0.7318,-0.0220,0.758
7.729000,0.6634,-0.8974,-0.1575,1.127
7.730000,0.5156,-0.7690,-0.2374,0.956
7.730000,0.7099,-0.5188,-0.2576,0.916
7.731000,0.6515,0.7540,-0.1150,1.003
7.734000,-0.1075,1.1457,0.2571,1.179
7.738000,-0.7314,1.2381,-0.1141,1.443
7.743000,-0.9525,1.8203,-0.1333,2.059
7.749000,-1.3975,2.0194,-0.2363,2.467
7.754000,-1.1715,1.3580,-0.3491,1.827
7.758000,-0.9821,1.3784,-0.0173,1.693
7.763000,-1.0105,1.6283,-0.1781,1.925
7.769000,-1.2535,1.1488,0.3736,1.741
7.773000,-0.5837,0.3138,0.3689,0.758
7.779000,-0.0653,1.2649,-0.1392,1.274
7.783000,0.0220,1.7702,0.1401,1.776
7.788000,0.1151,0.3272,0.7777,0.852
7.794000,0.6475,0.4607,-0.2119,0.822
7.798000,0.2017,0.9454,0.1886,0.985
7.803000,0.0465,0.6216,0.1875,0.651
7.807000,0.9347,0.2457,0.1123,0.973
7.814000,0.4132,0.7951,-0.1297,0.905
7.820000,-0.7337,1.2866,-0.8476,1.706
7.823000,-0.8959,0.2839,0.8315,1.255
7.838000,0.0870,-0.2374,0.5145,0.573
7.840000,-0.2428,0.6899,0.1710,0.751
7.842000,-1.0185,1.4034,-0.2672,1.755
7.843000,-0.8376,1.6955,0.0569,1.892
7.848000,1.0222,-0.1206,1.1647,1.554
7.851000,1.7934,0.3166,-0.7625,1.974
7.856000,0.4103,0.9086,-0.2398,1.025
7.861000,-0.5045,0.9884,0.0381,1.110
7.866000,-0.0636,0.7049,0.2538,0.752
7.872000,0.4267,0.2687,0.2601,0.567
7.877000,0.3359,0.6718,-0.5457,0.928
7.881000,0.5061,0.6085,-0.3188,0.853
7.888000,0.4112,1.2552,-0.8892,1.592
7.891000,-0.1324,0.8809,-0.6314,1.092
7.896000,0.4210,0.4497,-0.0428,0.618
7.899000,0.9740,-0.1983,0.4020,1.072
7.904000,1.2130,-0.5590,0.4841,1.421
7.909000,0.1171,0.0271,-0.3267,0.348
7.913000,-1.1044,0.6221,-0.2455,1.291
7.919000,-1.3617,0.3537,0.2459,1.428
7.928000,-1.1336,-0.0076,0.0899,1.137
7.929000,-0.3185,-0.1271,0.2861,0.447
7.935000,-0.3347,-0.3611,0.2053,0.533
7.939000,-0.3899,0.2059,-0.5758,0.725
7.962000,-0.6898,0.0338,-0.3150,0.759
7.963000,-0.3595,-0.7736,0.0714,0.856
7.964000,0.4857,-0.8391,0.2954,1.014
7.964000,0.7782,-1.1866,0.5223,1.512
7.965000,0.4018,-0.6759,0.1362,0.798
7.968000,-0.7989,1.0052,-0.6883,1.457
7.973000,-0.9627,1.0043,-0.6263,1.526
7.978000,0.1910,0.5808,-0.5133,0.798
7.983000,0.8150,-0.2460,0.2065,0.876
7.988000,1.2339,0.5532,-0.2786,1.381
7.992000,0.3658,0.9547,-1.0790,1.486
7.998000,0.7206,1.3034,-0.2931,1.518
8.003000,0.9494,0.6192,0.0472,1.134
8.009000,1.4520,0.8032,0.1629,1.667
8.013000,1.2155,0.7766,0.2070,1.457
8.020000,1.4979,1.1658,-0.0977,1.901
8.023000,0.9315,1.3775,-0.1271,1.668
8.033000,1.0198,1.4955,0.0568,1.811
8.036000,1.0834,1.5009,0.2342,1.866
8.039000,1.1512,1.4894,0.4170,1.928
8.043000,1.3238,1.2768,0.4381,1.891
8.048000,1.1971,0.9975,0.0585,1.559
8.053000,0.8644,0.7684,0.1725,1.169
8.066000,0.4565,0.5849,0.3118,0.805
8.068000,0.2671,0.4277,0.3570,0.618
8.069000,0.1258,0.2561,0.3535,0.454
8.074000,0.1161,0.1254,0.2672,0.317
8.101000,-0.1108,-0.0173,0.3639,0.381
8.102000,-0.0724,0.0099,0.1172,0.138
8.102000,0.0472,0.0035,0.1464,0.154
8.102000,-0.1470,-0.0268,0.0513,0.158
8.103000,-0.0854,0.0578,0.0949,0.140
8.103000,-0.0697,0.0586,-0.2342,0.251
8.107000,0.2302,0.2149,-0.6351,0.709
8.111000,0.3843,0.2588,-0.8100,0.933
8.115000,0.1012,0.0781,-0.9552,0.964
8.119000,-0.0786,-0.0281,-0.9015,0.905
8.127000,-0.0292,-0.0623,-0.6228,0.627
8.129000,-2.0355,-0.8300,-0.2325,2.210
8.134000,-0.4601,-0.3491,-0.4806,0.751
8.140000,0.3186,-0.4207,-0.4929,0.722
8.144000,0.3578,-0.3893,-0.0521,0.531
8.149000,0.1134,-0.3652,0.0866,0.392
8.153000,-0.2313,-0.3959,-0.2295,0.513
8.160000,0.4136,-0.1541,-0.4845,0.655
8.164000,0.9724,0.0110,-0.3867,1.047
8.168000,0.3916,0.0205,0.0212,0.393
8.175000,0.1156,0.1017,0.3884,0.418
8.178000,0.1625,0.1181,0.2519,0.322
8.183000,0.2309,0.1273,0.0569,0.270
8.195000,0.1439,0.0599,-0.3862,0.416
8.196000,0.0117,-0.0336,-0.3202,0.322
8.200000,-0.2138,-0.0505,0.1613,0.273
8.223000,-0.3128,-0.0674,0.3252,0.456
8.223000,-0.3145,-0.0628,0.3728,0.492
8.224000,-0.4605,-0.0534,0.5937,0.753
8.224000,-0.5356,-0.0489,0.4836,0.723
8.225000,-0.4638,0.0081,0.1190,0.479
8.227000,-0.3645,0.0891,-0.1683,0.411
8.232000,-0.1112,0.0864,-0.3811,0.406
8.237000,0.5477,0.1077,-0.8454,1.013
8.242000,1.4549,0.1482,-1.6239,2.185
8.246000,1.2210,0.1409,-1.5562,1.983
8.251000,0.7599,0.1839,-0.8270,1.138
8.256000,0.7596,0.1050,-0.6762,1.022
8.261000,0.6098,0.1146,-0.9116,1.103
8.266000,0.3441,0.1386,-0.8305,0.910
8.271000,0.2655,0.1603,-0.6724,0.740
8.276000,0.1468,0.1079,-0.2647,0.321
8.281000,-0.1964,-0.0710,0.1663,0.267
8.285000,-0.2291,-0.0108,0.4729,0.526
8.293000,0.3927,0.2238,0.8139,0.931
8.295000,0.5289,0.1950,0.7670,0.952
8.322000,0.3786,0.1159,0.8227,0.913
8.323000,0.0519,0.0224,0.6461,0.649
8.323000,0.0481,0.0794,0.2895,0.304
8.323000,-0.1041,-0.1121,-0.6016,0.621
8.324000,-0.0176,0.1436,-0.4913,0.512
8.324000,0.2933,0.1935,-0.5088,0.618
8.330000,-0.0558,-0.0314,-0.5893,0.593
8.334000,-0.3332,-0.2058,-0.0492,0.395
8.339000,-0.1425,0.0551,0.1511,0.215
8.345000,-0.1127,0.0049,-0.1576,0.194
8.350000,-0.1432,-0.0403,-0.3394,0.371
8.354000,-0.1359,-0.0496,-0.0437,0.151
8.359000,-0.0887,-0.0612,0.1752,0.206
8.364000,0.0273,0.0204,0.2367,0.239
8.369000,0.0880,-0.0080,0.0097,0.089
8.373000,0.4067,0.1476,0.4689,0.638
8.378000,0.2792,0.0256,0.7278,0.780
8.382000,-0.6773,-0.5600,0.0725,0.882
8.389000,0.0775,-0.1386,0.4761,0.502
8.393000,-0.5476,-0.3248,0.8439,1.057
8.398000,-0.6569,-0.5657,0.6730,1.098
8.408000,-0.8757,-0.5792,-3.1016,3.274
8.410000,-0.5352,0.5073,-1.6892,1.843
8.416000,-0.0548,0.3404,1.6472,1.683
8.440000,1.1151,-0.2112,2.3164,2.580
8.441000,3.3695,-0.0362,-1.1814,3.571
8.441000,0.7105,-0.0267,-0.8418,1.102
8.441000,0.3963,0.1430,-0.3623,0.556
8.442000,-0.8398,-0.5359,-1.7219,1.989
8.442000,-0.8231,0.0290,0.6751,1.065
8.446000,-0.0046,-0.0711,-0.0374,0.080
8.452000,-0.0694,-0.0635,-0.3275,0.341
8.457000,0.1548,0.0372,0.1544,0.222
8.462000,-0.5847,-0.4189,-0.3390,0.795
8.467000,-0.2945,0.0599,0.9250,0.973
8.471000,0.1955,-0.0760,0.6952,0.726
8.476000,0.7209,-0.0303,0.0893,0.727
8.481000,0.8594,0.2089,-0.2047,0.908
8.486000,0.3965,0.1394,-0.1016,0.432
8.491000,0.0947,0.0508,0.0515,0.119
8.495000,-0.0584,-0.0066,-0.1298,0.142
8.501000,-0.3122,-0.1667,-0.2054,0.409
8.506000,-0.2223,-0.0684,-0.1876,0.299
8.510000,-0.2551,-0.0682,-0.2563,0.368
8.516000,-0.3387,-0.1276,-0.3062,0.474
8.520000,-0.2894,-0.1319,-0.2442,0.401
8.525000,-0.4299,-0.2435,-0.1946,0.531
8.530000,-0.2366,-0.1064,-0.1454,0.297
8.544000,0.1900,0.0187,-0.5415,0.574
8.546000,0.2840,0.0027,-0.4151,0.503
8.547000,-0.2242,-0.0107,-0.3499,0.416
8.580000,-0.1706,-0.1388,-0.3239,0.391
8.580000,0.0737,0.0967,-0.0260,0.124
8.581000,0.2651,0.1502,0.2402,0.388
8.581000,-0.2697,-0.1834,-0.1918,0.378
8.581000,-0.3457,-0.2489,-0.5521,0.697
8.581000,-0.2769,-0.0107,-0.4322,0.513
8.582000,-0.2662,-0.1001,-0.3510,0.452
8.583000,-0.4858,-0.2084,-0.2938,0.605
8.589000,-0.6969,-0.4072,-0.3297,0.872
8.593000,-0.7395,-0.4503,-0.4680,0.984
8.598000,-0.7694,-0.3760,0.2376,0.889
8.603000,-0.8726,-0.5718,0.3431,1.098
8.608000,-1.0351,-0.5855,0.2631,1.218
8.613000,-1.5750,-0.8570,-0.0145,1.793
8.619000,-0.8219,-0.4636,0.2731,0.982
8.623000,-0.7574,-0.5125,-0.0918,0.919
8.627000,-0.8882,-0.5945,-0.3108,1.113
8.635000,-0.4735,-0.1623,0.2309,0.551
8.637000,-0.4068,-0.1965,0.1412,0.473
8.642000,-0.1404,-0.1731,0.0453,0.227
8.666000,0.5173,-0.0039,0.4358,0.676
8.667000,0.8165,0.0241,0.3484,0.888
8.668000,1.1286,0.1618,0.2090,1.159
8.669000,1.4855,0.4498,0.0911,1.555
8.669000,1.8949,0.7491,-0.0944,2.040
8.672000,1.4515,0.4383,-0.7564,1.694
8.677000,1.6132,0.9020,-0.6199,1.949
8.681000,1.3948,0.7483,-0.7231,1.740
8.686000,1.2242,0.7522,-0.5689,1.545
8.691000,1.1392,0.6819,-0.5104,1.422
8.695000,1.2953,0.7165,-0.2630,1.503
8.700000,1.0970,0.6384,0.0247,1.269
8.705000,0.7931,0.3093,-0.0867,0.856
8.710000,0.5958,0.3029,0.0946,0.675
8.715000,0.3707,0.1028,0.1376,0.409
8.720000,0.1772,-0.0469,0.0783,0.199
8.725000,0.0654,-0.1032,0.0460,0.131
8.730000,0.0946,-0.0831,0.0283,0.129
8.735000,0.2242,-0.1035,-0.1472,0.287
8.741000,0.2153,-0.1622,-0.4043,0.486
8.745000,0.3814,-0.0894,-0.5282,0.658
8.751000,0.6481,-0.1481,-0.8470,1.077
8.755000,0.7674,-0.0417,-0.8263,1.128
8.761000,0.7470,-0.0790,-0.6168,0.972
8.765000,0.8284,-0.1163,-0.3538,0.908
8.771000,0.6459,-0.2494,-0.1583,0.710
8.774000,0.6992,-0.2678,0.0011,0.749
8.781000,0.6558,-0.4345,0.0003,0.787
8.785000,0.6902,-0.6013,0.1482,0.927
8.788000,0.7139,-0.6631,0.4234,1.062
8.794000,0.5861,-0.9855,0.5922,1.291
8.801000,0.2829,-1.3797,0.5162,1.500
8.803000,0.3587,-1.3649,0.5903,1.530
8.811000,0.1147,-1.4795,0.5996,1.600
8.846000,-0.2314,-1.0947,0.6591,1.299
8.847000,-0.4815,-1.1503,0.6157,1.391
8.848000,-0.5141,-0.9957,0.7704,1.360
8.849000,-0.2336,-0.5785,0.6499,0.901
8.850000,-0.4692,-0.2290,0.4355,0.680
8.850000,-0.0215,-0.5346,0.4589,0.705
8.850000,0.2837,-0.7132,0.3831,0.858
8.851000,0.4604,-0.0142,-0.0987,0.471
8.852000,0.0558,0.1057,0.0285,0.123
8.857000,0.9405,-0.1810,0.9333,1.337
8.862000,0.6651,-0.2504,0.5789,0.917
8.866000,0.6474,0.8364,0.5265,1.182
8.871000,0.1621,1.0783,0.0848,1.094
8.876000,0.0474,1.2938,-0.2359,1.316
8.882000,-0.0419,1.7722,-0.3571,1.808
8.887000,-0.1845,1.3207,-0.2741,1.361
8.894000,0.3939,1.5844,-0.3065,1.661
8.895000,0.3258,1.1526,-0.6005,1.340
8.901000,0.4944,1.5362,-0.3519,1.652
8.906000,0.1349,1.0997,-0.6110,1.265
8.909000,-0.0743,1.4048,-0.8650,1.651
8.917000,-0.0451,1.2269,-1.2949,1.784
8.920000,0.0980,0.9396,-1.2517,1.568
8.925000,-0.0484,0.5358,-1.1081,1.232
8.930000,-0.1379,0.4385,-0.9017,1.012
8.934000,-0.3431,0.2341,-0.7866,0.889
8.940000,-0.2765,0.2452,-0.6106,0.714
8.947000,-0.1960,0.0843,-0.4809,0.526
8.949000,-0.1883,0.0958,-0.1705,0.271
8.953000,-0.2031,0.0573,0.0288,0.213
8.958000,-0.1867,0.0164,0.1524,0.242
8.963000,-0.1853,-0.0149,0.2054,0.277
8.969000,-0.1534,0.0017,0.3158,0.351
8.974000,-0.2634,-0.0031,0.5321,0.594
8.978000,-0.3118,0.0351,0.5964,0.674
8.989000,-0.2796,0.0303,0.4659,0.544
8.990000,-0.0573,0.0638,0.3794,0.389
8.994000,0.2673,0.0878,0.1933,0.341
9.001000,0.6034,0.1595,-0.1025,0.632
9.005000,0.6291,0.2071,0.0058,0.662
9.010000,0.7010,0.2736,0.1883,0.776
9.014000,1.0916,0.2898,-0.0472,1.130
9.018000,1.1321,0.2507,0.1169,1.165
9.023000,1.2195,0.3979,0.4439,1.357
9.032000,1.3951,0.4944,0.5197,1.569
9.034000,1.5608,0.5737,0.2095,1.676
9.039000,1.9203,0.8509,0.1698,2.107
9.079000,1.7881,0.6780,0.5170,1.981
9.081000,1.5824,0.6460,0.5160,1.785
9.081000,1.2697,0.4010,0.5803,1.452
9.082000,1.0647,0.0437,-0.2013,1.084
9.082000,0.1734,-0.2248,0.2933,0.408
9.082000,-0.8148,-0.6005,0.8427,1.317
9.082000,-2.6018,-1.3865,0.7355,3.039
9.083000,-3.6915,-2.2809,-0.3816,4.356
9.086000,-2.8387,-2.1026,-0.5002,3.568
9.088000,-1.4233,-1.2022,0.0925,1.865
9.091000,-0.6719,-0.6706,-0.1157,0.956
9.100000,0.0368,-0.2328,0.1256,0.267
9.102000,0.5820,-0.0799,-0.5011,0.772
9.106000,0.6662,0.3261,-0.3463,0.819
9.111000,0.3784,0.2248,-0.1731,0.473
9.115000,0.2039,0.1093,-0.0386,0.235
9.120000,0.2163,0.1181,-0.0973,0.265
9.126000,0.3298,0.2272,0.2822,0.490
9.130000,0.8450,0.4509,0.4782,1.071
9.134000,1.0168,0.5139,0.3835,1.202
9.139000,1.2282,0.5409,0.3394,1.384
9.144000,1.6998,0.7540,0.4895,1.923
9.150000,1.5671,0.7108,0.2847,1.744
9.154000,1.1499,0.4642,-0.2464,1.264
9.161000,0.6107,0.3230,-0.5603,0.889
9.166000,-0.3097,0.0218,-0.7408,0.803
9.170000,-0.4672,0.0749,-0.4867,0.679
9.190000,0.3189,0.2045,-1.3572,1.409
9.192000,1.0541,0.4725,-1.8366,2.170
9.192000,0.8366,0.4295,-1.7978,2.029
9.193000,0.0418,-0.1679,-1.8339,1.842
9.194000,-0.8147,-0.7597,-4.1042,4.253
9.199000,-2.0094,-1.0540,-3.8949,4.508
9.203000,-1.6745,-1.5028,-7.6078,7.934
9.208000,-4.6905,-1.6708,-5.1755,7.182
9.213000,-4.1692,0.4184,8.1160,9.134
9.217000,1.0204,0.0365,11.5874,11.632
9.222000,2.2593,-0.6060,3.0629,3.854
9.228000,1.1625,-0.2898,-3.0165,3.246
9.232000,0.5055,0.0883,-0.8198,0.967
9.237000,-0.4440,-0.0886,1.8533,1.908
9.243000,-0.5112,-0.3705,1.1738,1.333
9.247000,0.2622,-0.0330,-0.3226,0.417
9.252000,0.6572,0.3088,-0.9980,1.234
9.259000,0.2591,0.1699,-0.6725,0.740
9.261000,-0.0596,0.0741,0.0841,0.127
9.267000,0.0999,0.0884,0.1855,0.228
9.272000,0.2425,0.1026,-0.3125,0.409
9.280000,0.1173,0.0117,-0.4755,0.490
9.283000,-0.0315,-0.0671,-0.1323,0.152
9.286000,-0.0751,-0.1005,0.1123,0.168
9.295000,-0.0328,-0.0836,0.0413,0.099
9.297000,-0.0005,-0.0762,-0.0152,0.078
9.302000,0.1035,-0.0426,-0.0166,0.113
9.308000,0.1811,0.0221,-0.0035,0.182
9.322000,0.1510,0.0556,-0.0407,0.166
9.324000,0.0875,0.0652,-0.0681,0.129
9.325000,0.1125,0.0771,-0.1862,0.231
9.331000,0.1615,0.0819,-0.3139,0.362
9.331000,0.1602,0.1057,-0.4107,0.453
9.335000,0.1710,0.1105,-0.3907,0.441
9.342000,0.1557,0.0459,-0.2158,0.270
9.345000,0.2192,0.0387,-0.0366,0.226
9.351000,0.2565,0.0172,0.0614,0.264
9.355000,0.2772,-0.0019,0.0949,0.293
9.360000,0.2360,-0.0258,0.1168,0.265
9.365000,0.2141,-0.0233,0.1602,0.268
9.370000,0.2114,-0.0138,0.1082,0.238
9.374000,0.2090,-0.0162,-0.0295,0.212
9.379000,0.1947,-0.0019,-0.0236,0.196
9.384000,0.1351,0.0220,-0.0726,0.155
9.390000,0.1067,0.0075,-0.1191,0.160
9.395000,0.1644,0.0242,-0.1346,0.214
9.399000,0.1743,0.0528,-0.0857,0.201
9.403000,0.0863,-0.0119,-0.0439,0.098
9.409000,0.0557,-0.0406,-0.0333,0.077
9.414000,0.0895,-0.0454,-0.0348,0.106
9.418000,0.1185,-0.0765,-0.0410,0.147
9.426000,0.1045,-0.1243,0.0411,0.168
9.429000,0.0666,-0.2198,0.2163,0.315
9.433000,0.0789,-0.2315,0.4392,0.503
9.447000,0.0959,-0.2026,0.4497,0.502
9.449000,0.1273,-0.1427,0.2908,0.348
9.449000,0.0870,-0.1378,0.2806,0.324
9.453000,-0.0824,-0.2381,0.2564,0.359
9.481000,-0.0223,-0.2115,0.2538,0.331
9.482000,0.1021,-0.1827,0.3015,0.367
9.482000,0.0830,-0.0606,0.2467,0.267
9.483000,0.0854,-0.0296,-0.0492,0.103
9.483000,0.1524,0.0326,-0.4021,0.431
9.483000,0.0113,0.0396,-0.2318,0.235
9.486000,0.0137,0.0228,-0.2269,0.228
9.492000,-0.0151,-0.0203,-0.2366,0.238
9.496000,-0.0321,-0.0417,-0.2753,0.280
9.502000,0.1515,0.0850,-0.1352,0.220
9.508000,0.1675,0.0419,0.0164,0.173
9.511000,0.2290,0.1470,-0.0712,0.281
9.516000,0.1424,0.1182,-0.4119,0.452
9.521000,0.1348,0.1873,-0.5351,0.583
9.526000,0.2060,0.2086,-0.6183,0.684
9.530000,0.1697,0.2323,-0.4700,0.551
9.535000,0.1765,0.1986,-0.4491,0.522
9.540000,0.3006,0.2271,-0.4886,0.617
9.545000,0.1881,0.1623,-0.4758,0.537
9.549000,0.1834,0.2027,-0.3224,0.423
9.560000,0.0545,0.0017,-0.1432,0.153
9.561000,0.1526,0.1188,-0.0192,0.194
9.566000,0.3965,0.3003,-0.0984,0.507
9.569000,0.1888,0.1112,-0.1681,0.276
9.599000,0.0028,0.1492,-0.1662,0.223
9.599000,-0.1209,-0.1712,-0.0571,0.217
9.600000,-0.0227,0.1039,0.0474,0.116
9.600000,0.2305,0.1421,-0.0849,0.284
9.600000,0.1250,-0.0229,-0.0759,0.148
9.600000,-0.0401,0.0106,-0.0430,0.060
9.609000,-0.1433,0.0920,-0.0697,0.184
9.610000,0.1188,0.3215,-0.4216,0.543
9.613000,0.0076,0.3140,-0.5749,0.655
9.618000,0.0924,-0.0159,-0.3801,0.392
9.623000,-0.2244,-0.0731,-0.1262,0.268
9.628000,-0.3311,-0.0512,-0.0995,0.349
9.632000,-0.0105,0.0066,-0.1349,0.135
9.638000,-0.0703,-0.2369,-0.1897,0.312
9.642000,-0.2739,-0.1908,0.0592,0.339
9.647000,-0.1167,-0.1137,0.1980,0.256
9.653000,-0.1464,-0.1776,-0.0022,0.230
9.658000,-0.2865,-0.1626,-0.1042,0.345
9.665000,-0.0159,0.0174,-0.0677,0.072
9.669000,0.2925,0.1709,-0.1080,0.356
9.683000,0.1373,0.0135,-0.2776,0.310
9.684000,-0.2375,-0.1819,0.3554,0.465
9.685000,-0.4737,-0.3150,0.2878,0.638
9.703000,-0.4883,-0.2781,0.3716,0.674
9.704000,-0.3196,-0.1360,-0.0819,0.357
9.704000,-0.0203,0.0036,-0.4014,0.402
9.705000,0.4864,0.3868,-0.0070,0.622
9.705000,0.2453,-0.0000,0.2481,0.349
9.711000,-0.4017,-0.2167,0.4032,0.609
9.716000,-0.3292,-0.1917,0.0111,0.381
9.720000,-0.0998,-0.0400,-0.0722,0.129
9.726000,0.3537,0.3720,0.1098,0.525
9.731000,0.3887,0.0761,-0.0335,0.398
9.736000,0.0754,0.0889,0.0624,0.132
9.740000,-0.2449,0.0992,-0.1478,0.303
9.745000,-0.1041,0.0714,-0.2576,0.287
9.750000,0.0553,0.1105,-0.2192,0.252
9.755000,0.0926,0.2716,-0.5274,0.600
9.760000,0.2421,0.2317,-0.3029,0.452
9.765000,0.4181,0.2659,0.0550,0.498
9.772000,0.2932,0.0132,0.1812,0.345
9.777000,0.2500,0.1479,0.1313,0.319
9.780000,0.1378,-0.1238,-0.0138,0.186
9.787000,0.1261,-0.1299,-0.0290,0.183
9.791000,0.0163,-0.1743,-0.2661,0.319
9.794000,0.2840,-0.0752,-0.3954,0.493
9.800000,0.6497,-0.0001,-0.3098,0.720
9.808000,1.1903,0.2325,-0.0860,1.216
9.810000,1.2111,0.0942,-0.1401,1.223
9.813000,0.7246,-0.0823,0.2264,0.764
9.834000,0.3183,-0.2826,0.2415,0.489
9.835000,0.3382,-0.0335,0.1997,0.394
9.835000,0.1696,-0.0786,-0.0588,0.196
9.835000,0.0370,0.1654,-0.3907,0.426
9.838000,0.3610,0.2730,-0.7584,0.883
9.844000,0.1137,0.1797,-0.6724,0.705
9.848000,-0.2194,0.1415,-0.2215,0.342
9.853000,-0.4163,0.0675,-0.4235,0.598
9.858000,-0.4992,0.0846,-0.4868,0.702
9.862000,-0.2722,0.1137,-0.6580,0.721
9.868000,-0.0628,0.0903,-0.4951,0.507
9.872000,-0.1933,0.0694,-0.0725,0.218
9.877000,-0.3265,-0.0088,0.0512,0.331
9.882000,-0.1660,-0.1155,0.1181,0.234
9.887000,-0.3647,-0.2699,-0.0058,0.454
9.893000,-0.0645,-0.0512,0.1767,0.195
9.897000,0.1755,-0.0024,0.3189,0.364
9.903000,-0.0198,-0.0852,0.2416,0.257
9.906000,0.0457,-0.0603,0.1482,0.166
9.911000,0.1562,-0.0354,0.3156,0.354
9.922000,0.2097,-0.0346,0.5267,0.568
9.923000,0.2210,-0.1319,0.6796,0.727
9.930000,0.4018,-0.1359,0.7546,0.866
9.937000,0.4133,-0.1186,0.8185,0.925
9.963000,0.3844,-0.1252,0.7283,0.833
9.963000,0.2869,-0.0698,0.5748,0.646
9.963000,0.2113,-0.0529,0.3436,0.407
9.964000,0.2292,0.0477,0.1540,0.280
9.964000,0.3357,0.0453,0.0126,0.339
9.964000,0.1533,0.0931,-0.1283,0.221
9.965000,0.0022,0.1170,-0.2842,0.307
9.970000,-0.0768,0.1742,-0.3775,0.423
9.974000,-0.1985,0.2027,-0.4371,0.521
9.980000,-0.2492,0.1859,-0.4783,0.570
9.984000,-0.0877,0.2385,-0.4629,0.528
9.990000,0.1602,0.2336,-0.5453,0.614
9.995000,0.2833,0.1595,-0.2480,0.409
9.999000,1.0947,0.8167,0.4285,1.431
10.005000,1.0992,0.5624,0.0143,1.235
10.008000,-0.8431,0.0238,-0.2195,0.872
10.021000,-0.8076,0.3512,-0.2045,0.904
10.023000,-0.6041,0.7429,-0.1774,0.974
10.025000,-0.5378,0.9908,-0.2127,1.147
10.029000,-0.6925,1.3796,0.1680,1.553
10.035000,-0.9987,1.9281,-0.2397,2.185
10.038000,-1.5048,2.0030,-1.1436,2.754
10.042000,-2.1061,1.5524,-1.7032,3.122
10.051000,-2.3420,1.1412,-1.8360,3.187
10.054000,-2.4565,0.4777,-1.6583,3.002
10.059000,-2.3099,-0.1795,-0.9679,2.511
10.062000,-1.7256,-0.3357,-0.2862,1.781
10.081000,-0.6460,-0.3787,-0.4372,0.867
10.083000,0.3729,0.3245,-0.2486,0.553
10.084000,-0.0292,-0.0389,0.3557,0.359
10.084000,0.3141,-1.5889,0.8828,1.845
10.088000,2.0210,-1.2410,0.7355,2.483
10.093000,2.1677,-0.9815,-0.4881,2.429
10.097000,0.8644,-0.4612,-0.5394,1.118
10.101000,0.1598,-0.1077,-0.5665,0.598
10.107000,-0.0148,0.2800,-1.9652,1.985
10.112000,0.3116,1.1610,-3.8943,4.076
10.115000,1.6251,2.2740,-5.5573,6.221
10.120000,2.0404,2.8416,-6.0133,6.957
10.125000,2.9028,2.9525,-9.3204,10.199
10.130000,2.7523,3.2218,-11.0576,11.842
10.135000,2.0138,3.3575,-10.3789,11.093
10.140000,1.1879,3.0832,-9.3338,9.901
10.145000,3.0837,4.0679,-9.1149,10.447
10.150000,2.4689,3.4101,-8.0416,9.077
10.154000,1.5621,2.4073,-6.2590,6.885
10.159000,1.6735,1.9054,-5.2386,5.820
10.166000,1.6162,1.6426,-4.5860,5.132
10.169000,1.2837,1.3047,-3.8479,4.261
10.174000,0.8173,1.0211,-2.3476,2.687
10.184000,-1.4202,-1.2350,-0.0565,1.883
10.185000,0.7030,-0.2454,-1.3695,1.559
10.190000,-1.6145,-0.1354,-2.4336,2.924
10.193000,-5.6112,-1.2853,-3.8936,6.950
10.203000,-7.5978,-1.2597,-7.0637,10.450
10.205000,-7.6228,0.2995,-10.5242,12.998
10.209000,-6.5579,2.1235,-12.7436,14.488
10.213000,-4.9870,3.3881,-13.6043,14.880
10.219000,-2.9261,4.0197,-13.9150,14.777
10.223000,-1.4114,3.9302,-12.9803,13.636
10.228000,-0.5337,3.3755,-11.1381,11.651
10.232000,-0.3106,2.3939,-8.7376,9.065
10.237000,-0.7487,1.1840,-6.2676,6.422
10.242000,-1.5302,-0.1033,-4.4288,4.687
10.248000,-2.0069,-1.0302,-3.1878,3.905
10.252000,-2.0745,-1.5208,-2.6699,3.707
10.257000,-1.9594,-1.8765,-2.8227,3.915
10.262000,-1.6673,-2.1116,-3.2031,4.183
10.267000,-1.1418,-2.2953,-3.3434,4.213
10.271000,-0.5077,-2.3703,-3.1654,3.987
10.276000,0.1962,-2.4227,-3.1458,3.975
10.281000,0.7495,-2.6364,-3.5410,4.478
10.286000,1.1951,-2.7673,-3.9006,4.930
10.291000,1.5922,-2.8681,-4.1162,5.263
10.301000,2.0602,-3.0009,-4.0454,5.442
10.304000,2.5486,-3.2447,-3.7101,5.549
10.307000,2.7470,-3.5683,-3.0384,5.432
10.325000,3.0258,-3.9284,-2.4361,5.525
10.326000,3.1102,-4.1005,-1.7642,5.441
10.327000,3.3442,-4.1801,-1.2245,5.492
10.328000,3.4839,-4.0384,-0.7884,5.391
10.335000,3.5722,-3.7854,-0.4969,5.228
10.336000,3.5808,-3.3305,-0.0588,4.891
10.341000,3.6269,-2.8125,0.3674,4.604
10.346000,3.7105,-2.2555,0.8144,4.418
10.350000,3.7415,-1.6571,1.2387,4.275
10.356000,3.8329,-1.0320,1.7209,4.326
10.360000,3.8560,-0.5164,2.5499,4.652
10.365000,3.5891,-0.0745,3.6679,5.132
10.371000,3.3502,0.1625,4.9934,6.015
10.375000,2.6876,0.3957,6.5619,7.102
10.382000,1.9280,0.5775,7.5779,7.841
10.384000,1.1783,0.7176,7.8591,7.979
10.389000,0.5786,0.8686,7.6169,7.688
10.394000,0.2529,1.1904,7.3844,7.484
10.399000,0.2320,1.6513,7.1095,7.302
10.404000,0.4667,1.9806,6.8413,7.138
10.410000,0.6744,2.0945,6.8637,7.208
10.416000,0.7590,2.0237,7.2699,7.584
10.418000,0.5601,1.7540,7.6736,7.891
10.423000,0.2799,1.4742,7.9259,8.067
10.431000,0.0040,1.3680,7.8204,7.939
10.433000,-0.4761,1.3398,7.4777,7.612
10.438000,-1.1998,1.3319,7.0729,7.297
10.447000,-2.0667,1.2103,6.6301,7.049
10.452000,-2.9337,1.1069,6.0846,6.845
10.453000,-3.6509,1.0361,5.6754,6.827
10.459000,-4.2163,0.9429,5.4458,6.952
10.462000,-4.6945,0.7846,5.3824,7.185
10.468000,-5.0947,0.6258,5.2068,7.312
10.473000,-5.2899,0.5238,4.7941,7.158
10.477000,-5.4660,0.5022,4.3083,6.978
10.482000,-5.6316,0.5701,3.8606,6.852
10.487000,-5.7810,0.7366,3.3757,6.735
10.491000,-6.0520,0.8435,3.0056,6.810
10.496000,-6.5630,0.8045,2.5793,7.097
10.501000,-7.0913,0.8443,2.3507,7.518
10.506000,-7.4961,0.8695,1.8853,7.778
10.511000,-7.7992,0.9543,1.5109,8.001
10.516000,-1.3599,8.7581,0.1011,8.864
10.520000,16.5940,30.0569,-6.6249,34.967
10.526000,3.2968,1.8926,-14.4689,14.960
10.530000,-11.1505,-14.1331,-5.7315,18.893
10.535000,-1.9046,-1.5624,6.7643,7.199
10.545000,5.0680,4.8303,6.1205,9.299
10.546000,3.2391,-1.1019,0.2660,3.432
10.550000,0.9477,-2.9484,0.0717,3.098
10.556000,3.5652,0.0603,2.1257,4.151
10.567000,5.6118,-0.2091,0.8201,5.675
10.568000,5.2511,0.0194,-1.2763,5.404
10.571000,1.5620,0.6376,-1.3969,2.190
10.574000,-2.4915,0.4920,-1.0788,2.759
10.579000,-3.9769,1.2342,-1.0929,4.305
10.584000,-5.0154,2.0891,-0.4032,5.448
10.589000,-5.1458,0.7581,0.8792,5.275
10.594000,-3.9320,2.0474,2.0232,4.873
10.598000,-2.9811,1.1047,1.7459,3.627
10.603000,-1.8602,1.7037,1.4739,2.922
10.609000,-2.0246,0.7666,1.0774,2.418
10.614000,-1.8197,0.9052,0.6659,2.139
10.618000,-3.1874,0.2017,1.3375,3.463
10.624000,-7.9416,1.6066,1.2801,8.203
10.630000,-18.1552,5.8872,18.8849,26.850
10.633000,-23.1458,-0.0998,21.8866,31.855
10.638000,-14.4278,-5.2932,0.8112,15.390
10.643000,3.0740,2.0340,-14.8122,15.264
10.649000,8.9533,1.4692,-15.8489,18.262
10.653000,2.0119,0.1183,-1.0929,2.293
10.658000,-2.6252,0.3961,4.7263,5.421
10.663000,-3.5155,0.2743,2.1531,4.132
10.669000,-2.2297,-0.1503,-2.2319,3.158
10.674000,-0.3533,-0.0002,-2.9010,2.922
10.678000,0.2227,-0.0125,-0.8353,0.865
10.683000,0.0121,0.0350,1.3245,1.325
10.688000,-0.3724,0.0656,1.4668,1.515
10.696000,-0.8716,0.0697,0.9860,1.318
10.699000,-0.8312,0.0930,-0.2591,0.876
10.703000,-0.6127,0.1881,-1.0415,1.223
10.709000,-0.5720,0.2378,-1.0955,1.258
10.716000,-0.5271,0.2662,-0.5558,0.811
10.717000,-0.5712,0.0389,-0.0914,0.580
10.721000,-0.3866,0.2158,0.1674,0.473
10.728000,-0.3963,-0.0543,0.2808,0.489
10.730000,-0.2582,0.2112,0.2636,0.425
10.736000,-0.4217,-0.0542,0.0437,0.427
10.741000,-0.5521,0.0345,-0.1874,0.584
10.745000,-0.2908,0.2140,-0.3875,0.530
10.751000,-0.3122,0.1544,-0.3607,0.501
10.758000,-0.3243,0.4701,-0.3557,0.673
10.760000,-0.4108,0.4509,-0.5709,0.835
10.764000,-0.5263,0.3888,-0.5736,0.870
10.770000,-0.4846,0.4990,-0.6367,0.943
10.777000,-0.3168,0.4753,-0.5378,0.785
10.781000,-0.4364,0.1865,-0.5879,0.756
10.785000,-0.5111,0.3379,-0.6527,0.895
10.795000,-0.4285,0.4057,-0.8949,1.072
10.803000,-0.4256,0.2034,-0.9659,1.075
10.805000,-0.4254,0.2119,-0.9660,1.077
10.805000,-0.3564,0.3806,-0.9265,1.063
10.822000,-0.2592,0.1382,-0.7779,0.832
10.824000,-0.0018,-0.0608,-0.5704,0.574
10.824000,0.2605,0.1634,-0.3298,0.451
10.825000,0.4539,0.0479,0.1398,0.477
10.828000,0.6480,-0.1632,0.5689,0.878
10.833000,0.7641,-0.2333,1.0798,1.343
10.839000,0.9219,-0.3825,1.8595,2.110
10.842000,0.9066,-0.5296,2.1988,2.437
10.848000,0.6058,-0.5120,2.1896,2.329
10.853000,0.3994,-0.4829,1.9324,2.031
10.858000,0.1531,-0.4661,1.5396,1.616
10.862000,0.0913,-0.4065,1.3336,1.397
10.867000,0.1637,-0.3042,1.0870,1.141
10.874000,0.0833,-0.1330,0.6015,0.622
10.878000,0.1012,-0.1151,0.1445,0.211
10.882000,-0.0286,-0.0424,-0.4375,0.441
10.889000,-0.1867,-0.1061,-0.8969,0.922
10.895000,-0.1701,-0.0811,-1.0623,1.079
10.898000,0.0497,0.1159,-0.8987,0.907
10.902000,0.2456,0.3533,-0.6257,0.759
10.908000,0.3248,0.5521,-0.6348,0.902
10.913000,0.2944,0.5953,-0.9760,1.181
10.917000,-0.0008,0.4616,-1.2888,1.369
10.932000,-0.2477,0.3019,-1.2801,1.338
10.933000,-0.4564,0.0756,-1.0316,1.131
10.933000,-0.5648,-0.0953,-0.6026,0.831
10.947000,-0.5781,-0.0866,-0.3273,0.670
10.949000,-0.5490,-0.1568,-0.2960,0.643
10.950000,-0.4155,-0.1382,-0.2917,0.526
10.950000,-0.3634,-0.0696,-0.1937,0.418
10.956000,-0.3257,-0.0465,-0.2052,0.388
10.961000,-0.1288,-0.0591,-0.0975,0.172
10.966000,-0.0585,-0.1267,0.0147,0.140
10.970000,-0.2081,-0.1416,0.0386,0.255
10.974000,-0.3624,-0.1900,-0.0952,0.420
10.979000,-0.5501,-0.1810,-0.1956,0.611
10.984000,-0.5829,-0.1121,-0.1924,0.624
10.990000,-0.5083,-0.0792,-0.3539,0.624
10.995000,-0.3007,-0.0104,-0.5868,0.659
11.000000,-0.2986,-0.0253,-0.7356,0.794
11.006000,-0.3879,-0.0115,-0.8609,0.944
11.012000,-0.3294,0.0144,-1.0228,1.075
11.015000,-0.2519,-0.0026,-1.0636,1.093
11.020000,-0.1676,0.0187,-0.9238,0.939
11.024000,-0.0978,0.0257,-0.8093,0.816
11.031000,-0.1451,-0.0341,-0.6910,0.707
11.034000,-0.0318,-0.0222,-0.5396,0.541
11.043000,0.2750,-0.0533,-0.3144,0.421
11.046000,0.5076,-0.0271,0.0965,0.517
11.053000,0.3201,-0.0416,0.4235,0.533
11.055000,0.2005,-0.0730,0.3354,0.397
11.070000,0.3396,-0.0734,0.2241,0.413
11.072000,0.4361,-0.0118,0.3216,0.542
11.073000,0.3899,0.0042,0.4125,0.568
11.078000,0.0815,-0.0326,0.4396,0.448
11.084000,0.0034,-0.0001,0.3840,0.384
11.086000,0.0928,0.0944,0.1529,0.202
11.115000,0.1321,0.0286,0.0326,0.139
11.115000,0.1431,-0.0109,0.1279,0.192
11.116000,0.0373,-0.0815,0.5795,0.586
11.116000,0.1064,-0.0206,1.0031,1.009
11.116000,0.3309,0.0616,0.9930,1.048
11.116000,0.3218,0.0024,0.5500,0.637
11.118000,0.2822,0.1105,-0.0080,0.303
11.121000,0.2885,0.1945,-0.3591,0.500
11.126000,0.4052,0.1804,-0.3393,0.558
11.131000,0.6516,0.3263,0.1970,0.755
11.137000,1.3600,0.7778,1.0850,1.906
11.141000,1.6588,0.8627,0.9774,2.110
11.146000,0.9224,0.4573,1.5586,1.868
11.152000,0.1259,0.2936,1.4918,1.526
11.155000,0.0784,0.4025,1.3586,1.419
11.160000,0.3072,0.7121,0.9929,1.260
11.166000,0.5554,0.9090,1.2417,1.636
11.174000,0.6862,1.1080,1.6576,2.109
11.176000,1.1491,1.3068,2.0904,2.720
11.180000,1.6257,1.4744,1.9706,2.950
11.189000,2.4174,1.9478,1.9346,3.658
11.191000,2.6072,1.8470,2.3751,3.981
11.216000,3.1353,2.5135,1.9825,4.481
11.218000,4.0597,3.2987,1.4558,5.430
11.219000,5.5394,4.3384,0.6059,7.062
11.219000,6.5885,4.8696,-1.6193,8.351
11.220000,7.7762,5.5693,-3.6267,10.229
11.221000,6.9743,5.5961,-5.2008,10.344
11.226000,4.5133,4.9031,-5.1517,8.423
11.228000,3.3954,4.3043,-4.6181,7.168
11.234000,3.7800,4.1176,-5.4010,7.773
11.244000,4.4460,4.2709,-7.2612,9.525
11.245000,4.5765,4.7876,-8.6466,10.892
11.249000,4.4620,4.5919,-9.3157,11.304
11.253000,5.4906,5.2598,-9.2726,11.991
11.259000,6.5343,5.7100,-9.2113,12.655
11.263000,6.9459,5.7734,-8.5868,12.462
11.269000,7.9382,6.1224,-7.3826,12.450
11.273000,9.2815,6.5109,-6.4269,13.032
11.278000,10.3889,6.7934,-6.2224,13.885
11.283000,11.0449,6.8106,-6.1664,14.367
11.288000,11.3514,6.7616,-5.5614,14.335
11.293000,11.6830,6.2410,-4.8238,14.096
11.298000,11.9312,5.4459,-4.0786,13.735
11.303000,12.4474,5.7921,-4.2604,14.375
11.308000,12.0449,6.4043,-5.8911,14.859
11.313000,11.9644,6.2912,-7.3514,15.387
11.318000,12.2841,8.1096,-9.3257,17.425
11.323000,13.0130,9.0886,-9.7936,18.651
11.327000,13.4392,10.8034,-9.0445,19.471
11.341000,13.8791,14.0935,-7.9833,21.330
11.345000,13.9826,17.0273,-7.7681,23.362
11.346000,15.3386,17.6016,-5.8767,24.075
11.347000,18.2323,16.1954,-3.9568,24.706
11.364000,19.3332,13.7596,-0.9113,23.747
11.366000,19.0130,11.1953,-0.9099,22.083
11.367000,13.9849,7.3820,-3.2645,16.147
11.368000,9.9818,6.5734,-6.6666,13.685
11.372000,7.4641,7.3835,-7.1130,12.682
11.375000,6.1037,6.2772,-0.4451,8.767
11.380000,5.5390,2.8356,12.3710,13.848
11.385000,8.6585,-0.3934,13.0356,15.654
11.390000,11.4837,-1.4579,4.6694,12.482
11.395000,13.3551,-2.7295,-1.6023,13.725
11.400000,15.3295,-6.0678,-2.9850,16.755
11.404000,20.2027,-8.7367,-5.4671,22.680
11.409000,25.2109,-10.4960,-1.0430,27.328
11.414000,12.0422,-5.6175,8.9593,16.026
11.420000,-10.4386,-9.4620,2.0739,14.241
11.424000,-13.4332,-12.6286,-5.7290,19.307
11.429000,-5.3703,-11.5261,-6.3724,14.223
11.434000,3.2973,-10.1140,-3.7468,11.278
11.439000,10.0560,-8.1443,-0.5698,12.953
11.444000,14.0054,-6.9528,1.1008,15.675
11.455000,15.4961,-6.3084,1.0327,16.763
11.457000,15.5048,-6.2305,-0.2301,16.711
11.458000,15.0645,-6.2958,-1.7136,16.417
11.479000,14.7141,-6.3592,-2.9823,16.305
11.480000,14.2747,-6.3116,-3.9514,16.100
11.480000,13.5677,-6.2118,-5.2040,15.804
11.480000,12.5539,-6.2848,-6.3171,15.395
11.482000,11.4427,-6.4381,-6.7576,14.766
11.487000,10.4342,-6.6810,-6.3058,13.902
11.492000,9.0998,-7.1335,-5.3238,12.729
11.497000,7.5939,-7.7359,-4.5920,11.773
11.502000,6.6229,-8.2975,-4.3940,11.490
11.507000,6.6780,-8.8246,-2.8276,11.422
11.512000,6.7220,-8.9334,-0.7425,11.205
11.517000,6.8616,-8.8233,0.3754,11.184
11.522000,7.3037,-8.5956,0.1021,11.280
11.527000,8.0302,-8.0290,-0.8058,11.384
11.532000,8.7729,-7.1101,-1.6297,11.409
11.536000,9.2081,-6.1156,-2.2637,11.283
11.542000,9.3016,-5.2671,-2.8237,11.056
11.547000,9.1810,-4.6166,-3.3682,10.814
11.551000,8.9041,-4.0969,-3.7623,10.499
11.557000,8.5358,-3.6242,-3.8280,10.032
11.561000,8.2146,-3.1984,-3.4869,9.480
11.565000,7.9146,-2.8051,-2.6652,8.810
11.570000,7.5355,-2.4845,-1.5244,8.080
11.575000,7.1042,-2.2030,-0.3946,7.448
11.580000,6.8905,-1.7979,0.5588,7.143
11.588000,7.1265,-1.1949,1.1558,7.318
11.589000,7.4826,-0.3941,1.5242,7.646
11.609000,7.8709,0.4371,1.2872,7.987
11.609000,8.4164,1.2294,1.9095,8.717
11.610000,8.4427,1.9805,2.5680,9.044
11.612000,8.4554,2.7048,3.2587,9.457
11.614000,8.2963,3.4165,3.7142,9.711
11.618000,8.0998,4.1730,3.7964,9.871
11.623000,7.9944,5.0388,3.7865,10.180
11.628000,7.6365,6.0374,4.1368,10.577
11.633000,7.1557,7.1546,4.4291,11.046
11.638000,6.5615,8.3040,4.6019,11.541
11.643000,5.9288,9.3302,4.8094,12.055
11.648000,5.4796,10.3363,5.1776,12.793
11.653000,5.1712,11.2672,5.7168,13.652
11.658000,4.6526,12.0871,6.0833,14.309
11.665000,3.8083,12.7024,6.6410,14.831
11.668000,2.4460,12.9149,6.5693,14.695
11.673000,3.6550,14.0492,5.5667,15.548
11.678000,5.8670,15.5107,3.9681,17.051
11.683000,5.6403,16.6826,4.2362,18.113
11.688000,4.1524,17.6933,5.5262,18.996
11.696000,1.9373,18.1815,6.6566,19.458
11.703000,-0.6892,17.9042,7.2941,19.345
11.705000,4.1782,24.4020,8.6176,26.214
11.708000,3.7397,27.9966,4.0969,28.541
11.713000,-16.1083,8.5335,2.8817,18.455
11.718000,-21.5947,3.9091,9.2328,23.809
11.722000,-23.2725,4.6023,12.3202,26.732
11.733000,-22.1050,7.9538,9.6150,25.384
11.735000,-14.0455,14.7529,4.5231,20.866
11.745000,-10.4705,16.7509,0.1080,19.754
11.746000,-10.4506,17.1514,-1.5732,20.146
11.761000,-12.5743,15.4064,-2.2449,20.013
11.762000,-15.6752,13.7576,-2.2323,20.975
11.763000,-18.1362,13.3417,-3.1919,22.740
11.764000,-21.9072,13.5881,-6.0774,26.486
11.768000,-26.8149,13.9556,-7.9995,31.270
11.770000,-31.6557,13.6664,-6.7251,35.130
11.776000,-36.2351,13.0619,-3.7646,38.701
11.780000,-40.5529,11.9686,-1.6521,42.314
11.786000,-40.7841,10.3218,-0.4305,42.072
11.790000,-35.7816,8.5089,0.4693,36.782
11.795000,-28.1228,8.5328,0.5128,29.393
11.801000,-20.1725,10.9470,-0.4308,22.955
11.804000,-17.4871,11.5649,-1.9741,21.058
11.810000,-10.5250,16.6174,1.0582,19.699
11.814000,8.4243,31.7942,1.1414,32.911
11.822000,6.5704,31.6627,-10.0005,33.848
11.823000,5.4180,11.1919,-9.4395,15.612
11.832000,-5.9124,4.0401,-12.0817,14.044
11.837000,-23.3584,-0.1496,-13.3262,26.893
11.842000,-28.8334,0.3182,-7.5459,29.806
11.845000,-25.0903,-2.5180,-3.2827,25.429
11.857000,-10.3203,-1.5598,-1.7430,10.582
11.859000,4.5053,0.2999,-1.1905,4.670
11.859000,16.1383,-0.2220,-1.6717,16.226
11.864000,20.5731,-1.9313,-3.1012,20.895
11.868000,17.8543,-2.7434,-1.1866,18.103
11.873000,12.6981,-2.0911,2.0711,13.035
11.882000,6.4457,0.1329,1.1246,6.544
11.883000,-0.2452,0.9186,-0.2998,0.997
11.889000,-5.0881,0.8122,-2.6498,5.794
11.893000,-7.3780,1.5456,-3.4763,8.301
11.898000,-7.2989,2.9586,-3.9205,8.798
11.902000,-7.1469,2.3901,-4.1001,8.579
11.907000,-5.1712,3.9813,-6.1232,8.949
11.912000,-4.6029,3.7050,-7.2249,9.333
11.917000,-4.5270,3.0999,-6.8747,8.796
11.922000,-5.4368,2.0751,-2.0788,6.180
11.932000,-10.3559,3.3361,6.7808,12.820
11.935000,-23.4830,5.0071,22.3553,32.807
11.937000,-24.6355,0.2764,25.9306,35.768
11.971000,-13.1795,-0.5361,8.9595,15.946
11.973000,-2.4437,0.9658,-4.4807,5.194
11.974000,-1.1276,1.0340,-7.6775,7.828
11.976000,-5.6252,1.8155,-5.9552,8.391
11.977000,-7.4234,1.3336,-4.2421,8.653
11.979000,-5.8574,0.5724,-4.5948,7.467
11.981000,-2.7580,0.4950,-4.0567,4.930
11.984000,-0.8786,0.4928,-1.5540,1.852
11.986000,-1.0105,0.3667,1.1533,1.577
11.986000,-1.6866,0.0953,2.9542,3.403
11.993000,-1.6971,-0.0966,2.1010,2.702
11.995000,-1.0817,0.1662,0.5411,1.221
12.001000,-0.0411,0.3215,-0.2755,0.425
12.006000,1.0035,0.5912,1.2182,1.685
12.010000,0.7558,0.3990,1.0330,1.341
12.016000,0.0867,0.3574,0.6320,0.731
12.021000,-0.3185,0.1820,0.1604,0.400
12.024000,-0.6186,-0.0576,0.2652,0.676
12.029000,-0.4344,0.0881,0.5852,0.734
12.033000,-0.3441,0.0305,0.5144,0.620
12.038000,-0.1851,0.1810,0.1419,0.295
12.044000,-0.1179,0.2263,-0.3593,0.441
12.048000,-0.1179,0.2907,-0.3945,0.504
12.053000,-0.0824,0.2500,-0.3801,0.462
12.059000,-0.1145,0.3720,-0.3120,0.499
12.068000,0.2170,0.5344,-0.4468,0.730
12.069000,0.5459,0.5748,-0.7350,1.081
12.091000,0.3212,0.3664,-0.6290,0.796
12.093000,0.1303,0.1774,-0.6461,0.683
12.093000,0.1093,0.2205,-0.6523,0.697
12.094000,0.0454,0.2755,-0.6308,0.690
12.095000,-0.4607,0.0892,-0.5594,0.730
12.099000,-0.8333,-0.0753,-0.6120,1.037
12.104000,-0.9845,-0.2346,-0.7126,1.238
12.110000,-1.0275,-0.2906,-0.4214,1.148
12.117000,-1.3113,-0.5806,-0.0876,1.437
12.119000,-1.3824,-0.8292,-0.0046,1.612
12.125000,-1.0521,-1.0413,0.3270,1.516
12.127000,-0.4517,-0.6960,0.5756,1.010
12.132000,0.2810,-0.1911,0.8609,0.926
12.137000,0.6022,-0.1313,0.7767,0.992
12.143000,0.7232,0.0597,0.5363,0.902
12.147000,0.2789,-0.1536,0.4907,0.585
12.153000,-0.1284,-0.5006,0.7188,0.885
12.158000,-0.2125,-0.4575,0.6708,0.839
12.165000,0.0284,-0.1111,0.4687,0.483
12.168000,0.0186,-0.0208,0.1891,0.191
12.175000,-0.1369,-0.0167,-0.0417,0.144
12.178000,-0.0869,-0.0246,-0.2555,0.271
12.186000,-0.0990,-0.0826,-0.3951,0.416
12.188000,-0.0505,-0.1477,-0.3787,0.410
12.193000,0.0793,-0.1387,-0.1971,0.254
12.201000,0.3093,-0.1536,-0.0184,0.346
12.202000,0.5781,-0.1590,0.1293,0.613
12.210000,0.7162,-0.1239,0.4089,0.834
12.210000,0.6832,-0.1463,0.5932,0.917
12.214000,0.6033,-0.0947,0.8186,1.021
12.227000,0.5896,-0.0457,0.6704,0.894
12.228000,0.5125,0.0724,0.2085,0.558
12.229000,0.6063,0.2692,-0.3446,0.748
12.234000,0.4089,0.3272,-0.9424,1.078
12.239000,0.1434,0.3993,-1.1833,1.257
12.245000,-0.0928,0.3280,-1.2809,1.325
12.248000,-0.0609,0.2401,-1.3289,1.352
12.253000,0.1764,0.5897,-1.0674,1.232
12.258000,-0.2101,0.1216,-0.4846,0.542
12.264000,-0.3815,-0.0066,-0.3206,0.498
12.269000,-0.1520,0.3770,-0.4966,0.642
12.274000,0.2373,0.6646,-0.6294,0.946
12.280000,0.0287,0.4810,-0.6471,0.807
12.284000,0.3632,1.1127,-0.2396,1.195
12.290000,-0.4210,-0.0058,0.2443,0.487
12.299000,0.5080,0.7796,0.6714,1.147
12.299000,0.6286,0.5603,0.5781,1.021
12.316000,1.4595,0.8265,0.6620,1.803
12.317000,1.3690,1.7232,-0.0171,2.201
12.319000,1.3114,1.3307,-0.2615,1.886
12.320000,2.7106,2.5589,-0.9078,3.837
12.323000,3.6842,2.9945,-1.8409,5.092
12.327000,3.4790,3.7470,-2.6621,5.765
12.332000,5.1085,5.5999,-3.4928,8.346
12.337000,5.9746,6.1213,-6.0989,10.505
12.343000,6.1295,6.8158,-7.7654,12.014
12.348000,7.0911,6.8945,-6.9272,12.075
12.354000,7.3419,6.6402,-4.9975,11.089
12.357000,8.0299,6.4816,-3.3562,10.852
12.362000,8.6294,7.0280,3.8429,11.774
12.367000,8.7764,7.3547,-5.1258,12.546
12.375000,10.4421,8.9268,-8.5503,16.181
12.379000,11.4711,8.8360,-6.6314,15.926
12.382000,12.2869,7.5106,-2.3599,14.593
12.388000,12.5155,6.7026,0.1395,14.198
12.393000,12.6782,6.7776,-0.2013,14.378
12.404000,12.8072,6.3657,-2.7902,14.572
12.406000,14.6103,7.0621,-3.0033,16.503
12.407000,15.3502,6.3257,-4.2281,17.132
12.410000,17.2767,6.4842,-3.0586,18.705
12.414000,18.2398,6.1758,-1.8751,19.348
12.420000,19.4535,7.0584,-0.4557,20.699
12.425000,19.4812,5.2989,-0.8598,20.207
12.429000,20.4729,5.2510,0.0086,21.136
12.440000,21.5835,5.2817,0.0838,22.220
12.442000,23.0058,7.6202,0.6561,24.244
12.446000,23.4871,9.8572,2.0582,25.555
12.450000,23.9134,13.2325,1.9800,27.402
12.473000,22.7234,16.4298,3.5705,28.267
12.475000,20.5054,20.0627,4.1618,28.988
12.478000,16.6560,21.6285,4.3227,27.639
12.479000,12.8628,18.0777,-0.9869,22.209
12.480000,10.9448,9.1260,-4.0823,14.824
12.481000,10.5581,4.4078,2.5237,11.716
12.485000,11.2390,4.5319,5.7046,13.394
12.490000,11.2550,4.6226,5.2119,13.237
12.492000,8.1345,6.6281,2.7326,10.843
12.498000,6.6323,8.8363,0.6075,11.065
12.507000,8.2359,8.9749,-2.4209,12.419
12.509000,12.8720,6.4190,-4.7350,15.143
12.512000,20.1611,1.1309,-4.9745,20.797
12.519000,26.1705,-5.0429,-5.5129,27.216
12.523000,34.3299,-10.5365,-8.9855,37.018
12.528000,27.2875,-6.6477,10.1737,29.871
12.532000,-17.6432,-18.0634,16.1864,29.993
12.541000,-20.9115,-15.7375,1.3701,26.208
12.572000,-10.5751,-14.2386,-0.4384,17.742
12.574000,-2.3618,-11.3999,6.0966,13.142
12.575000,3.6462,-8.1315,9.5213,13.041
12.576000,7.4640,-7.1766,9.9906,14.388
12.577000,11.2496,-7.1016,7.9935,15.520
12.578000,14.8203,-6.8103,5.4590,17.199
12.579000,17.5733,-5.9566,2.9897,18.795
12.585000,19.0424,-5.5649,1.5844,19.902
12.588000,16.0720,-6.2961,-0.5079,17.269
12.588000,14.5252,-6.5324,-0.8650,15.950
12.592000,14.3033,-6.7242,-0.5548,15.815
12.595000,14.2904,-6.9134,-0.2810,15.877
12.600000,13.8149,-7.1416,-0.2353,15.553
12.605000,12.9415,-7.4769,0.0217,14.946
12.610000,12.0457,-7.7700,0.8985,14.362
12.615000,11.5098,-7.9672,1.9273,14.130
12.622000,10.9154,-8.0168,2.6316,13.796
12.624000,10.2510,-8.1616,1.9264,13.244
12.629000,10.5643,-8.0149,2.0132,13.413
12.635000,10.8856,-7.4292,2.3759,13.392
12.639000,11.0164,-6.6470,2.1811,13.050
12.643000,10.8366,-5.9420,1.5805,12.459
12.649000,10.6611,-5.1651,0.9708,11.886
12.654000,10.6819,-4.2611,0.4858,11.511
12.659000,10.8680,-3.2607,-0.0068,11.347
12.681000,10.7878,-2.1519,-0.5923,11.016
12.684000,10.6437,-1.0777,-1.1234,10.757
12.685000,10.5588,-0.0164,-1.2745,10.635
12.686000,10.5122,0.9385,-1.1355,10.615
12.689000,10.4693,1.8637,-0.7648,10.661
12.690000,10.2779,2.7589,-0.1435,10.643
12.693000,9.8100,3.5713,0.5402,10.454
12.705000,9.0563,4.2457,1.2701,10.082
12.707000,8.3096,4.8365,1.9853,9.817
12.708000,7.7794,5.4678,2.2350,9.768
12.713000,7.5874,6.2660,1.9984,10.041
12.719000,7.4254,7.3237,1.5293,10.541
12.722000,7.0787,8.5948,0.9012,11.171
12.728000,6.5359,10.0333,0.2040,11.976
12.733000,5.6107,11.3733,-0.5445,12.694
12.738000,4.4373,12.5476,-1.2025,13.363
12.742000,3.3168,13.5943,-1.5709,14.081
12.747000,1.9334,14.3341,-1.5312,14.545
12.752000,0.5238,14.9799,-1.0502,15.026
12.757000,-0.6836,15.5169,-0.6342,15.545
12.761000,-1.7351,16.1921,-0.2393,16.287
12.767000,-2.7102,16.7442,0.0709,16.962
12.771000,-3.7520,17.1707,0.4213,17.581
12.776000,-4.8315,17.5002,0.7741,18.171
12.785000,-6.0493,17.7135,0.8808,18.739
12.823000,-7.3675,17.5720,0.6506,19.065
12.825000,-8.7793,16.7321,0.1108,18.896
12.826000,-10.3835,15.2715,-0.5054,18.474
12.826000,-11.6760,13.4831,1.3268,17.885
12.827000,-12.7249,11.4814,5.5274,18.008
12.827000,-14.1330,10.5989,10.5645,20.584
12.828000,-15.1739,11.3920,10.6386,21.753
12.828000,-15.0653,13.1527,6.5473,21.043
12.829000,-13.8876,15.0423,1.7373,20.546
12.832000,-13.4229,16.2963,-3.2096,21.355
12.834000,-14.4517,16.6733,-7.1455,23.193
12.841000,-16.9898,16.4708,-9.3871,25.457
12.845000,-21.0970,15.9226,-9.9275,28.234
12.849000,-25.1657,15.5276,-7.8896,30.605
12.854000,-29.3511,14.8706,-4.0957,33.157
12.859000,-33.1679,13.6698,0.0489,35.874
12.863000,-35.7638,11.2812,2.1718,37.564
12.869000,-37.2637,8.5114,1.5484,38.255
12.873000,-36.9471,6.7772,1.7867,37.606
12.880000,-34.9238,6.3141,1.3076,35.514
12.886000,-32.2527,7.1217,0.3619,33.032
12.888000,-26.8750,10.7669,0.2863,28.953
12.893000,-20.8486,12.2663,-0.7491,24.201
12.898000,-19.0330,12.3001,-2.4355,22.792
12.903000,-19.2505,11.9029,-2.6950,22.793
12.907000,-19.7940,10.6038,-1.8986,22.536
12.913000,-18.5633,10.5697,0.9359,21.382
12.917000,1.1816,31.8719,-0.8032,31.904
12.923000,20.3482,31.7876,-5.3855,38.125
12.929000,32.4799,21.1972,-5.6029,39.187
12.933000,26.5429,-8.8203,-10.9116,30.023
12.937000,-3.6565,-10.2458,-1.0257,10.927
12.943000,-18.6338,-10.1561,4.0998,21.614
12.948000,-9.7164,-13.0994,-0.0679,16.310
12.952000,13.9758,-4.9746,3.8219,15.319
12.956000,29.2950,1.2452,-3.3030,29.507
12.962000,25.9869,-2.5727,-10.0429,27.978
12.967000,16.1692,-2.8000,-11.2564,19.899
12.971000,9.1229,3.7159,-10.2562,14.221
12.976000,-2.1969,7.7983,-6.4628,10.364
12.982000,-14.4093,8.4271,-4.5217,17.294
12.986000,-20.8443,3.2167,-7.9538,22.541
12.990000,-21.9750,-4.1534,-7.6771,23.645
12.995000,-20.4453,-8.4298,-1.4512,22.163
13.000000,-12.9305,-3.3524,5.0349,14.275
13.005000,-0.8609,2.2459,4.2758,4.906
13.011000,-0.0516,0.5597,-1.4993,1.601
13.015000,-3.7817,3.9338,-6.5988,8.563
13.019000,-8.0909,4.0494,-5.4135,10.544
13.024000,-9.8426,1.3031,-0.9981,9.979
13.030000,-8.9496,1.2837,5.3366,10.499
13.035000,-9.0853,0.4398,12.8332,15.730
13.039000,-14.0504,3.8857,22.0823,26.460
13.050000,-20.9160,3.8719,28.5490,35.602
13.059000,-20.4419,2.3796,14.8356,25.370
13.061000,-15.7949,-1.7378,-12.4138,20.164
13.064000,-9.6692,-2.2101,-28.4842,30.162
13.066000,-0.4883,1.5709,-21.2485,21.312
13.092000,1.0597,1.1250,-3.0725,3.439
13.094000,-1.6800,0.8877,8.4880,8.698
13.095000,-2.7959,0.0006,7.5234,8.026
13.095000,-1.8903,-0.2854,2.1580,2.883
13.096000,-0.4635,0.1700,-0.5561,0.744
13.096000,-0.1246,0.6920,-1.7601,1.895
13.100000,0.0800,0.9147,-1.9168,2.125
13.102000,-0.2941,0.2817,-0.9182,1.005
13.107000,-0.3759,0.1610,1.7415,1.789
13.113000,-0.1214,0.0165,2.5205,2.524
13.119000,-0.3170,0.4361,1.1451,1.266
13.123000,-0.8165,0.3891,-0.5296,1.048
13.128000,-0.8124,0.4069,-0.8909,1.272
13.135000,-0.7141,0.1238,-0.0794,0.729
13.137000,-0.3473,0.2808,0.5858,0.737
13.148000,-0.1012,0.3994,0.1595,0.442
13.150000,-0.0591,0.4057,-0.5377,0.676
13.158000,-0.4142,0.4693,-1.1651,1.323
13.161000,-0.5762,0.5425,-0.9683,1.251
13.175000,-0.5530,0.5751,-0.8375,1.157
13.176000,-0.3447,0.3761,-0.4064,0.652
13.176000,-0.2381,0.2252,-0.1721,0.370
13.179000,-0.4455,0.0985,-0.3561,0.579
13.181000,-0.4913,0.1895,-0.8003,0.958
13.186000,-0.5714,0.2399,-1.3973,1.529
13.191000,-0.3515,0.2665,-1.5049,1.568
13.195000,-0.0564,0.2956,-1.2652,1.300
13.200000,0.2019,0.1168,-0.5206,0.571
13.206000,0.4194,0.0267,0.0285,0.421
13.211000,0.5347,-0.2282,0.3847,0.697
13.216000,0.7228,-0.4950,0.7993,1.186
13.221000,0.8567,-0.8285,1.3334,1.788
13.226000,0.9699,-0.7745,1.8463,2.225
13.230000,0.8217,-0.6563,1.9178,2.187
13.235000,0.4072,-0.6317,1.7952,1.946
13.240000,-0.1708,-0.8246,1.4922,1.713
13.246000,-0.3728,-0.6805,1.0621,1.315
13.249000,-0.3568,-0.3071,0.6339,0.790
13.254000,-0.2410,-0.2998,0.0806,0.393
13.261000,0.0418,-0.1014,-0.1464,0.183
13.264000,-0.1317,-0.1375,-0.9697,0.988
13.269000,-0.2235,-0.2476,-1.6944,1.727
13.282000,0.1654,-0.3527,-1.6628,1.708
13.283000,0.8768,-0.2904,-0.5990,1.101
13.284000,1.3091,-0.3144,0.7397,1.536
13.289000,1.3459,-0.2739,1.6190,2.123
13.299000,1.2484,-0.2721,1.7397,2.158
13.300000,1.0379,-0.3588,1.4037,1.782
13.334000,0.8290,-0.1876,1.3162,1.567
13.336000,0.5668,-0.1099,0.9963,1.152
13.336000,0.2649,-0.0180,0.5063,0.572
13.336000,-0.0049,0.1167,0.0993,0.153
13.337000,-0.2935,0.1246,-0.3450,0.470
13.337000,-0.0634,0.2472,-0.5831,0.637
13.337000,0.0659,0.2121,-0.7736,0.805
13.337000,-0.0224,0.3228,-0.5054,0.600
13.344000,-0.3210,0.2398,-0.6968,0.804
13.347000,-0.3927,0.2957,-0.8955,1.022
13.352000,-0.1947,0.3611,-1.2167,1.284
13.359000,0.0458,0.3237,-0.9648,1.019
13.362000,0.1711,0.4131,-0.5180,0.684
13.367000,0.1745,0.4761,-0.4804,0.698
13.374000,-0.0419,0.3478,-0.4138,0.542
13.376000,-0.2295,0.2580,-0.3279,0.476
13.382000,-0.0014,0.3524,-0.0554,0.357
13.386000,0.3505,0.3750,0.1052,0.524
13.394000,0.4658,0.3402,0.3287,0.664
13.395000,0.4261,0.3987,0.6033,0.839
13.401000,0.6521,0.4976,1.0227,1.311
13.407000,0.7615,0.3934,1.1905,1.467
13.419000,0.7399,0.4159,1.4870,1.712
13.420000,0.8861,0.6009,1.6827,1.994
13.421000,1.0994,0.6663,1.6730,2.110
13.426000,1.3869,1.1547,1.1111,2.119
13.431000,1.8684,1.9246,0.4347,2.717
13.436000,3.4316,3.2718,-0.1398,4.743
13.439000,4.2727,3.9051,-1.1246,5.897
13.445000,5.9500,5.4767,-1.4436,8.215
13.450000,7.9543,7.2921,-1.5423,10.901
13.454000,9.2866,7.5849,-1.8934,12.139
13.459000,9.5001,7.6045,-2.2967,12.384
13.464000,8.8710,7.4636,-3.4569,12.098
13.469000,8.6513,7.3326,-3.8307,11.970
13.474000,8.5672,7.1517,-3.9880,11.851
13.479000,8.4866,7.4901,-4.5557,12.202
13.484000,8.6865,7.7477,-5.7472,12.981
13.490000,9.5084,7.6689,-6.1476,13.675
13.497000,10.3664,7.7540,-6.5519,14.509
13.499000,11.1607,7.4201,-6.8336,15.044
13.505000,11.8081,7.6791,-7.3186,15.873
13.508000,12.6609,7.8616,-7.3987,16.639
13.513000,13.6063,7.3541,-7.2803,17.094
13.518000,15.4146,7.2098,-6.1167,18.083
13.524000,16.3466,6.7794,-5.7933,18.621
13.529000,17.8094,6.4562,-5.1451,19.630
13.533000,18.2328,5.8375,-3.7419,19.507
13.554000,19.3900,5.6107,-1.9918,20.284
13.557000,21.5857,5.9940,-0.1256,22.403
13.558000,23.9388,6.6875,1.7323,24.916
13.559000,24.8344,7.6019,4.0687,26.289
13.561000,26.4318,10.3865,4.6200,28.773
13.562000,25.4320,13.8514,2.8585,29.100
13.566000,23.1102,18.5449,0.9675,29.647
13.572000,21.1862,21.5257,-0.7933,30.213
13.576000,18.1785,20.7515,-1.5885,27.633
13.582000,12.7744,17.1755,-2.9308,21.605
13.587000,8.9298,7.6688,-3.3804,12.247
13.591000,8.8800,3.9500,0.1285,9.720
13.596000,11.0315,4.4120,4.2037,12.603
13.601000,9.5074,4.7685,7.9378,13.272
13.608000,7.6629,7.5665,4.4324,11.646
13.611000,12.9280,9.0589,-1.7197,15.879
13.646000,14.9513,7.2014,-2.8045,16.831
13.648000,14.6912,4.2506,-3.5079,15.691
13.649000,18.1113,-0.7300,-4.7792,18.746
13.649000,21.2999,-7.0496,-6.3174,23.309
13.650000,26.6756,-11.0911,-7.7003,29.898
13.651000,22.1926,-6.4666,8.9857,24.801
13.654000,-12.6277,-16.0323,16.5285,26.262
13.657000,-19.6232,-16.7358,4.1277,26.119
13.659000,-13.2379,-15.1457,-0.9044,20.136
13.661000,-7.5330,-14.4744,2.8686,16.568
13.664000,-1.5149,-11.5250,7.8378,14.020
13.675000,3.7671,-9.4226,10.1839,14.377
13.676000,8.6265,-8.3789,9.4281,15.281
13.681000,13.4274,-8.0312,7.4249,17.318
13.683000,17.2304,-7.3921,4.3215,19.241
13.688000,19.6443,-6.8469,2.1896,20.918
13.693000,18.7785,-7.2581,-0.0608,20.133
13.698000,16.3567,-7.6622,-0.4645,18.068
13.703000,16.3527,-7.2914,0.1838,17.906
13.708000,16.9196,-6.8592,0.3065,18.260
13.713000,16.6360,-6.4377,-0.3592,17.842
13.725000,15.9238,-6.1837,-1.0642,17.115
13.728000,14.7765,-6.2205,-1.1633,16.075
13.734000,13.6318,-6.3516,-0.5505,15.049
13.737000,12.6058,-6.4749,0.5227,14.181
13.742000,11.4517,-6.5086,1.4577,13.253
13.744000,10.1257,-6.5996,1.0334,12.131
13.762000,9.5622,-6.5681,1.0716,11.650
13.764000,9.1301,-6.1960,1.4380,11.127
13.764000,8.7631,-5.6141,1.4980,10.515
13.765000,8.5668,-4.9921,1.0712,9.973
13.768000,8.4147,-4.3962,0.3466,9.500
13.772000,8.2258,-3.7615,-0.1717,9.047
13.777000,8.0985,-3.0422,-0.5729,8.670
13.781000,8.0115,-2.1521,-0.8219,8.336
13.786000,7.9412,-1.2655,-0.8142,8.083
13.791000,7.7736,-0.5588,-0.6938,7.824
13.796000,7.5618,0.1572,-0.5423,7.583
13.801000,7.2729,0.7322,-0.3815,7.320
13.806000,7.0819,1.3674,-0.0011,7.213
13.811000,7.2264,2.1775,0.5555,7.568
13.815000,7.6972,3.2437,1.2235,8.442
13.823000,8.3808,4.6208,1.7377,9.727
13.825000,8.7979,6.0214,1.9383,10.836
13.845000,8.6061,7.2421,2.1720,11.456
13.847000,8.0980,8.3283,2.6968,11.925
13.850000,7.5467,9.4278,3.1326,12.476
13.852000,6.9717,10.5306,3.3458,13.065
13.855000,6.2558,11.6389,3.4607,13.659
13.856000,5.5062,12.7591,3.5102,14.333
13.879000,4.6261,13.8363,3.4367,14.989
13.882000,3.6488,14.8367,3.3325,15.638
13.883000,2.8372,15.8864,3.3583,16.484
13.883000,2.0861,16.9253,3.6636,17.442
13.884000,1.2956,17.9121,4.1250,18.427
13.884000,0.2463,18.7987,4.4739,19.325
13.890000,-1.3509,19.4891,4.4010,20.025
13.894000,-3.9090,19.6990,4.2434,20.526
13.899000,-7.4423,18.7266,4.7932,20.713
13.903000,-11.2279,16.6583,6.3334,21.064
13.909000,-14.0917,14.5268,8.1109,21.803
13.913000,-15.6444,12.6477,9.7961,22.376
13.919000,-15.9896,11.6575,10.1406,22.235
13.924000,-15.3803,11.9281,8.4932,21.236
13.928000,-13.6709,13.4912,4.8044,19.799
13.934000,-11.9121,15.3498,-0.6086,19.439
13.939000,-11.0887,16.5936,-5.9042,20.813
13.944000,-11.5464,16.9634,-8.2231,22.106
13.949000,-13.6202,16.5263,-6.7405,22.451
13.953000,-17.2610,15.3715,-4.5628,23.559
13.959000,-22.2254,13.9974,-3.1764,26.457
13.963000,-27.9561,12.6440,-2.5852,30.791
13.973000,-33.5941,11.3221,-2.3690,35.530
13.977000,-40.2983,10.0197,-2.4174,41.596
13.985000,-43.2732,8.1085,-0.6575,44.031
13.986000,-42.1780,6.8352,-0.0815,42.728
14.020000,-36.5476,6.7972,0.3419,37.176
14.023000,-30.4927,8.5138,-1.2373,31.683
14.025000,-23.0065,12.4934,-1.2029,26.207
14.028000,-20.6037,13.1768,-2.7360,24.609
14.030000,-21.1488,12.7772,-3.7218,24.988
14.033000,-20.7399,11.7403,-4.6930,24.290
14.035000,-20.6457,10.2710,-5.0492,23.606
14.038000,-7.8565,22.4893,1.4048,23.864
14.041000,11.1477,31.7275,-4.7943,33.969
14.043000,16.5901,31.6001,-8.1797,36.616
14.045000,28.3730,2.4927,-13.6916,31.602
14.045000,9.6191,-7.4943,-15.5907,19.793
14.046000,-17.5073,-4.6497,-1.0779,18.146
14.050000,-21.3514,-10.8434,-4.7181,24.407
14.054000,-4.4058,-9.2273,3.3352,10.755
14.059000,20.2582,1.3449,1.7661,20.379
14.064000,28.3748,1.4820,-9.6139,29.996
14.069000,22.9192,-1.3101,-12.3660,26.075
14.075000,10.6348,-1.3985,-8.9791,13.989
14.079000,-1.6906,3.6919,-1.3636,4.283
14.084000,-12.2033,5.1043,1.1608,13.279
14.089000,-19.1384,0.4896,-0.3329,19.148
14.094000,-22.0709,-3.5275,0.2610,22.353
14.104000,-14.9265,-0.9704,2.4768,15.162
14.106000,-3.1411,2.4018,2.2820,4.565
14.108000,1.5107,1.7827,-0.3001,2.356
14.143000,-0.0438,0.6370,-2.7283,2.802
14.144000,-4.2927,3.1864,-5.2279,7.477
14.146000,-7.8948,3.1637,-5.8866,10.344
14.147000,-6.9511,3.0897,-4.2635,8.720
14.149000,-5.1699,2.3254,-0.5863,5.699
14.150000,-4.9093,-0.2957,5.9795,7.742
14.151000,-11.2754,1.6141,14.7281,18.619
14.154000,-23.0738,3.2222,27.9609,36.395
14.156000,-24.3999,2.8555,20.6108,32.067
14.157000,-16.2053,-0.1863,-2.9903,16.480
14.163000,-5.6803,0.2264,-17.6651,18.557
14.167000,0.6543,0.5138,-15.4015,15.424
14.172000,1.1822,1.1115,-0.9839,1.898
14.177000,-0.5252,1.1348,7.1574,7.266
14.182000,-1.4859,0.6156,4.8973,5.155
14.187000,-1.0137,0.6471,-0.6829,1.383
14.191000,-0.7156,0.9704,-2.2904,2.588
14.196000,-1.1548,0.6936,0.0035,1.347
14.201000,-1.5378,0.2693,1.1340,1.930
14.206000,-1.2104,-0.0204,0.8442,1.476
14.211000,-0.6180,-0.1756,0.3229,0.719
14.217000,-0.0589,-0.0580,0.9555,0.959
14.221000,0.1168,-0.1029,1.8206,1.827
14.226000,0.1962,-0.2123,2.6489,2.665
14.246000,0.3951,-0.1805,2.6421,2.678
14.250000,0.3413,-0.1942,1.6747,1.720
14.251000,0.2154,0.0456,0.5415,0.585
14.252000,-0.2591,0.1823,-0.6494,0.723
14.252000,-0.6979,0.2139,-1.3356,1.522
14.255000,-1.0517,0.1525,-1.4619,1.807
14.260000,-1.0364,0.3925,-1.2076,1.639
14.272000,-0.8702,0.5273,-1.1241,1.516
14.273000,-0.8466,0.2056,-1.1969,1.480
14.276000,-0.7610,0.2335,-1.0108,1.287
14.281000,-0.8132,0.1516,-0.8455,1.183
14.285000,-0.9962,0.0126,-0.8010,1.278
14.290000,-1.2220,-0.2719,-0.4299,1.324
14.294000,-0.6015,-0.1112,-0.4395,0.753
14.298000,0.1410,0.1379,-0.7334,0.759
14.303000,0.3402,0.3579,-1.1755,1.275
14.310000,1.0106,1.0508,-1.4989,2.091
14.314000,0.3240,-0.0282,-1.2545,1.296
14.320000,-0.7082,-0.8215,-1.0166,1.487
14.325000,-0.2514,-0.1917,-0.6579,0.730
14.329000,0.4482,0.1266,-0.4605,0.655
14.333000,0.7123,0.0812,-0.0584,0.719
14.338000,0.7146,0.0621,0.4193,0.831
14.346000,0.5334,-0.2702,1.0905,1.244
14.349000,0.3243,-0.8769,1.2386,1.552
14.353000,0.5341,-0.3237,1.1514,1.310
14.357000,0.6082,-0.1488,0.8863,1.085
14.364000,0.2050,-0.1965,0.6275,0.689
14.367000,0.0415,-0.1413,0.3887,0.416
14.372000,0.0767,-0.0599,0.1842,0.208
14.383000,0.0783,-0.0072,-0.1346,0.156
14.385000,0.1397,0.0454,-0.2501,0.290
14.393000,0.0959,0.0597,-0.5400,0.552
14.394000,0.0811,0.0620,-0.6389,0.647
14.425000,0.2240,0.0452,-0.3583,0.425
14.427000,0.5676,0.0189,-0.0689,0.572
14.428000,0.8687,-0.0195,0.1034,0.875
14.430000,0.8454,-0.0459,0.0750,0.850
14.432000,1.1007,0.4439,-0.0511,1.188
14.433000,0.2602,-0.4173,-0.2605,0.557
14.434000,0.1713,-0.1184,-0.2424,0.320
14.435000,0.6877,0.1396,-0.2720,0.753
14.436000,0.5710,0.1557,-0.3228,0.674
14.441000,0.3333,0.1958,-0.2754,0.475
14.445000,0.4809,0.2597,-0.1538,0.568
14.451000,0.5619,0.2662,-0.4190,0.750
14.454000,0.6386,0.2584,-0.0961,0.696
14.460000,0.6584,0.3581,0.3368,0.822
14.464000,0.2844,0.2522,0.3158,0.494
14.469000,-0.0674,0.3615,0.3533,0.510
14.475000,0.3288,0.4804,-0.2874,0.649
14.482000,1.3199,1.4094,0.1864,1.940
14.484000,0.0860,-0.1363,-0.0544,0.170
14.489000,-0.2818,0.3299,0.6234,0.760
14.494000,1.0442,1.3286,1.0289,1.978
14.499000,0.6132,0.3162,0.0634,0.693
14.505000,-0.0990,0.0892,-0.1542,0.204
14.529000,0.1616,0.9523,-0.4954,1.086
14.535000,1.2085,1.9099,-1.3474,2.631
14.535000,0.9316,0.9593,-1.8282,2.265
14.536000,0.7917,1.3672,-1.0088,1.875
14.536000,1.9935,2.3483,-0.6654,3.151
14.537000,3.7203,3.1442,-0.9016,4.954
14.538000,5.3695,4.3286,-1.1786,6.997
14.545000,6.0329,4.8351,-1.5845,7.892
14.547000,6.2030,6.5860,-3.4510,9.683
14.553000,7.7785,6.9745,-3.5607,11.038
14.559000,8.4645,7.2046,-3.2970,11.594
14.563000,9.1590,7.7928,-2.8187,12.352
14.568000,9.6449,7.2596,-2.0209,12.240
14.573000,9.1002,6.6534,-1.3213,11.350
14.577000,8.7151,6.6605,-1.1618,11.030
14.582000,9.2822,7.1277,-1.5369,11.804
14.587000,10.4587,7.8324,-2.6968,13.342
14.592000,11.4410,8.0074,-4.0472,14.539
14.597000,12.7789,8.3347,-3.9894,15.770
14.602000,13.4643,8.0547,-3.2645,16.026
14.608000,13.3437,7.4799,-2.1625,15.449
14.615000,14.2222,7.1277,-1.9263,16.025
14.619000,15.7213,7.0729,-2.9429,17.488
14.622000,16.3512,6.5173,-3.0126,17.858
14.631000,17.6304,6.4329,-1.0598,18.797
14.633000,19.1327,5.7115,-0.2678,19.969
14.639000,20.2417,5.1535,0.7339,20.900
14.654000,21.4117,5.0731,2.1441,22.109
14.655000,22.7546,5.9349,4.7912,23.999
14.655000,24.4783,6.8649,5.8180,26.080
14.655000,24.7759,6.7735,7.4273,26.737
14.660000,24.1914,8.4820,9.2202,27.243
14.666000,19.2871,11.8359,9.4317,24.516
14.670000,15.4231,14.9289,10.6673,23.969
14.675000,9.0636,17.5109,10.1779,22.189
14.680000,8.6954,17.0940,4.2323,19.640
14.684000,9.3134,9.5266,1.6541,13.425
14.689000,6.6619,5.4663,1.9578,8.837
14.694000,5.0448,4.0222,0.5870,6.479
14.698000,2.7284,4.9890,-0.0937,5.687
14.703000,3.3670,6.7333,-0.6482,7.556
14.708000,8.5855,7.5332,1.2706,11.492
14.714000,12.1410,6.3217,3.1601,14.048
14.718000,14.6811,3.7542,-0.0562,15.154
14.728000,20.1727,-2.0217,-5.6156,21.037
14.729000,29.8220,-6.4049,-10.3359,32.206
14.733000,32.0347,-5.8858,-15.1790,35.934
14.761000,-4.7124,-7.7100,4.3533,10.030
14.763000,-24.7893,-6.8223,9.0144,27.245
14.764000,-26.5305,-12.4293,3.1079,29.462
14.768000,-17.2813,-13.0673,6.7826,22.702
14.771000,-5.4154,-9.5508,11.9686,16.242
14.772000,3.9953,-6.7478,13.9150,15.973
14.774000,8.9393,-6.3646,11.1682,15.657
14.776000,12.0975,-5.9824,6.4534,14.959
14.777000,14.5719,-5.0294,3.1992,15.744
14.783000,16.0737,-3.9755,1.3266,16.611
14.790000,16.6008,-3.3106,-0.0716,16.928
14.792000,16.2119,-3.4345,-1.6033,16.649
14.796000,15.6225,-4.1886,-2.4693,16.362
14.801000,14.9129,-5.0682,-3.1122,16.055
14.807000,14.4745,-5.9993,-2.5061,15.868
14.811000,14.3229,-6.5969,-0.5423,15.778
14.816000,13.7577,-7.1587,1.7860,15.611
14.823000,12.7867,-7.6004,3.4875,15.278
14.826000,11.7599,-8.1044,4.1910,14.884
14.835000,11.0120,-8.4190,4.2902,14.510
14.836000,10.5892,-8.5689,4.4369,14.326
14.841000,10.5010,-8.3788,4.4930,14.166
14.846000,10.3916,-7.9437,4.4901,13.829
14.850000,10.2261,-7.4110,4.0847,13.273
14.861000,10.2680,-6.6318,3.4491,12.701
14.875000,10.4653,-5.7226,2.7740,12.246
14.876000,10.5681,-4.7662,2.0084,11.766
14.879000,10.5175,-3.7503,1.4811,11.264
14.881000,10.4149,-2.8081,0.5501,10.801
14.882000,10.3423,-1.8533,-0.5972,10.524
14.904000,10.3602,-0.7208,-1.0408,10.437
14.905000,10.2318,0.3390,-1.1201,10.299
14.905000,9.7040,1.2846,-1.1967,9.862
14.906000,8.8009,2.0164,-1.1014,9.096
14.906000,7.7812,2.5342,-0.7221,8.215
14.910000,6.9056,2.9794,-0.2255,7.524
14.915000,6.3154,3.3949,0.1334,7.171
14.919000,6.0704,3.9290,0.2821,7.237
14.924000,5.8748,4.6220,0.0614,7.475
14.929000,5.7364,5.4642,-0.3322,7.929
14.934000,5.4503,6.3569,-0.8222,8.414
14.938000,5.0288,7.2665,-1.5576,8.973
14.943000,4.4027,8.1782,-2.5129,9.622
14.948000,3.5885,9.0272,-3.4264,10.301
14.953000,2.5381,9.7678,-4.1945,10.929
14.957000,1.5859,10.4289,-4.7518,11.570
14.963000,0.9728,11.0652,-4.8914,12.137
14.968000,0.4121,11.6169,-4.7718,12.565
14.978000,-0.1577,12.1700,-4.3209,12.915
14.981000,-0.6354,12.7840,-3.6005,13.297
14.984000,-1.1374,13.6711,-2.7296,13.987
15.009000,-1.8518,14.6970,-1.5898,14.898
15.010000,-3.1247,15.5384,-0.4163,15.855
15.012000,-5.0419,16.0357,0.7445,16.826
15.013000,-7.2025,16.1129,1.5832,17.720
15.014000,-9.2734,15.5993,1.9594,18.253
15.014000,-1.2953,22.8154,4.9056,23.373
15.018000,-2.5188,27.1734,0.7996,27.302
15.022000,-17.6030,1.3470,-6.7808,18.912
15.026000,-25.2585,-6.1304,-0.5450,25.998
15.032000,-25.7052,4.4865,8.3769,27.405
15.036000,-17.0607,12.1350,9.7960,23.115
15.040000,-10.3609,15.9420,4.6816,19.581
15.046000,-9.5194,16.3817,0.1502,18.947
15.050000,-11.6008,14.7879,-2.0772,18.910
15.056000,-13.8992,12.9254,-3.2022,19.249
15.060000,-17.2041,11.3963,-4.7508,21.176
15.065000,-21.4851,10.6570,-6.3028,24.797
15.070000,-24.7970,11.3256,-6.3457,27.990
15.077000,-26.2929,12.9364,-5.4529,29.806
15.079000,-29.4320,12.8989,-4.1454,32.401
15.093000,-32.2125,12.4428,-1.7044,34.574
15.096000,-32.7426,11.3693,1.2581,34.683
15.096000,-33.0287,9.5594,2.8246,34.500
15.099000,-32.9288,7.1045,2.7117,33.795
15.116000,-30.7138,5.9269,1.1143,31.300
15.117000,-24.0902,7.6483,1.3601,25.312
15.118000,-20.4350,8.0946,0.6676,21.990
15.119000,-19.3750,8.9869,0.9191,21.378
15.123000,-3.5611,22.6086,9.5201,24.788
15.129000,11.2926,31.6752,2.3759,33.712
15.134000,13.5168,31.5326,-7.6359,35.147
15.138000,20.1279,-0.0633,-13.1230,24.028
15.143000,2.8636,-9.4768,-7.8580,12.640
15.150000,-19.5026,-8.6062,2.7293,21.491
15.154000,-20.4691,-12.5333,3.2767,24.224
15.158000,4.8732,-4.5023,4.2599,7.884
15.163000,26.8140,1.9145,-1.2844,26.913
15.171000,28.3019,-0.1917,-9.2351,29.771
15.174000,18.3433,-2.0692,-12.2512,22.155
15.178000,8.9715,2.0325,-11.7329,14.909
15.185000,-1.7235,7.2477,-7.4815,10.558
15.187000,-13.4214,9.0215,-5.5550,17.099
15.192000,-19.9567,4.7208,-9.9781,22.806
15.197000,-21.0674,-1.7790,-10.9601,23.814
15.201000,-18.0537,-4.4026,-5.2726,19.316
15.207000,-10.7571,-3.1602,3.4068,11.718
15.212000,0.4800,0.9031,4.9461,5.051
15.222000,1.1887,0.3936,-0.6227,1.398
15.223000,-2.6278,3.7787,-6.2313,7.747
15.227000,-7.3043,3.3569,-7.1355,10.749
15.231000,-9.9247,3.8205,-6.9103,12.683
15.256000,-10.6752,1.2706,0.1669,10.752
15.257000,-8.5833,0.5931,8.8321,12.330
15.257000,-7.2495,0.5202,14.6078,16.316
15.257000,-8.4039,1.1885,18.3550,20.222
15.258000,-11.8876,2.3165,20.5005,23.811
15.261000,-13.9091,2.1617,12.9212,19.107
15.267000,-13.5972,-0.4372,-1.5801,13.696
15.270000,-11.3313,-1.8008,-19.0011,22.196
15.275000,-5.6611,0.7621,-18.8256,19.673
15.279000,-1.4801,0.6824,-8.6788,8.831
15.284000,-0.0426,0.7945,3.5397,3.628
15.289000,-0.4309,0.9209,6.7221,6.799
15.294000,-2.0293,0.5022,3.9705,4.487
15.301000,-2.3696,0.2658,-0.5851,2.455
15.304000,-1.5630,0.3120,-3.1658,3.544
15.309000,-0.2706,0.4470,-3.4636,3.503
15.315000,0.6893,0.8569,-1.8987,2.194
15.319000,0.4947,0.4107,0.3780,0.746
15.324000,-0.0004,-0.0015,2.2394,2.239
15.330000,-0.0720,-0.0548,2.4510,2.453
15.335000,0.0495,0.2194,1.5101,1.527
15.340000,-0.0040,0.3259,0.2313,0.400
15.346000,-0.2969,0.3367,-0.3857,0.592
15.364000,-0.6524,0.2353,0.0063,0.694
